
time,gFx,gFy,gFz,ax,ay,az,wx,wy,wz,Azimuth,Pitch,Roll,Latitude,Longitude,Speed (m/s),
0.0880,0.1708,-0.2585,1.0345,0.0000,0.0000,0.0000,0.0000,0.0000,0.0000,0.0000,0.0000,0.0000,0.00000000,0.00000000,0.00000000,
0.0970,0.1708,-0.2585,1.0345,0.1517,-0.0975,-0.5599,0.0000,0.0000,0.0000,0.0000,0.0000,0.0000,47.64564990,-122.12144078,0.00000000,
0.1070,0.1708,-0.2585,1.0345,0.1517,-0.0975,-0.5599,-0.0758,0.4668,0.5422,0.0000,0.0000,0.0000,47.64564990,-122.12144078,0.00000000,
0.1080,0.1708,-0.2585,1.0345,0.1517,-0.0975,-0.5599,-0.0758,0.4668,0.5422,287.9756,14.3430,8.1543,47.64564990,-122.12144078,0.00000000,
0.1380,0.1708,-0.2585,1.0345,0.3643,-0.4567,-0.4858,-0.0758,0.4668,0.5422,287.9756,14.3430,8.1543,47.64564990,-122.12144078,0.00000000,
0.1470,0.1708,-0.2585,1.0345,0.3643,-0.4567,-0.4858,-0.0758,0.4668,0.5422,287.4799,14.1456,7.6797,47.64564990,-122.12144078,0.00000000,
0.1570,0.1192,-0.2103,1.0075,0.3643,-0.4567,-0.4858,-0.0758,0.4668,0.5422,287.4799,14.1456,7.6797,47.64564990,-122.12144078,0.00000000,
0.1720,0.1192,-0.2103,1.0075,0.3643,-0.4567,-0.4858,0.1742,0.1553,0.1318,287.4799,14.1456,7.6797,47.64564990,-122.12144078,0.00000000,
0.1770,0.1192,-0.2103,1.0075,0.5804,0.0360,-0.1210,0.1742,0.1553,0.1318,287.4799,14.1456,7.6797,47.64564990,-122.12144078,0.00000000,
0.1870,0.1192,-0.2103,1.0075,0.5804,0.0360,-0.1210,0.1742,0.1553,0.1318,287.6772,13.7015,7.1788,47.64564990,-122.12144078,0.00000000,
0.2170,0.1192,-0.2103,1.0075,0.3458,-0.5309,-0.3760,0.1742,0.1553,0.1318,287.6772,13.7015,7.1788,47.64564990,-122.12144078,0.00000000,
0.2180,0.0667,-0.2181,0.9842,0.3458,-0.5309,-0.3760,0.1742,0.1553,0.1318,287.6772,13.7015,7.1788,47.64564990,-122.12144078,0.00000000,
0.2270,0.0667,-0.2181,0.9842,0.3458,-0.5309,-0.3760,0.1742,0.1553,0.1318,288.3745,13.9374,6.5559,47.64564990,-122.12144078,0.00000000,
0.2370,0.0667,-0.2181,0.9842,0.3458,-0.5309,-0.3760,-0.1232,0.3379,-0.2411,288.3745,13.9374,6.5559,47.64564990,-122.12144078,0.00000000,
0.2570,0.0667,-0.2181,0.9842,-0.0470,0.0322,-0.2824,-0.1232,0.3379,-0.2411,288.3745,13.9374,6.5559,47.64564990,-122.12144078,0.00000000,
0.2670,0.0667,-0.2181,0.9842,-0.0470,0.0322,-0.2824,-0.1232,0.3379,-0.2411,289.3621,14.3038,6.0804,47.64564990,-122.12144078,0.00000000,
0.2870,0.0980,-0.2608,0.9836,-0.0470,0.0322,-0.2824,-0.1232,0.3379,-0.2411,289.3621,14.3038,6.0804,47.64564990,-122.12144078,0.00000000,
0.2970,0.0980,-0.2608,0.9836,0.4415,-0.0402,-0.0151,-0.1232,0.3379,-0.2411,289.3621,14.3038,6.0804,47.64564990,-122.12144078,0.00000000,
0.3010,0.0980,-0.2608,0.9836,0.4415,-0.0402,-0.0151,-0.2442,0.3822,-0.3430,289.3621,14.3038,6.0804,47.64564990,-122.12144078,0.00000000,
0.3060,0.0980,-0.2608,0.9836,0.4415,-0.0402,-0.0151,-0.2442,0.3822,-0.3430,290.3230,14.8180,5.3036,47.64564990,-122.12144078,0.00000000,
0.3370,0.0980,-0.2608,0.9836,0.3052,0.0513,-0.4703,-0.2442,0.3822,-0.3430,290.3230,14.8180,5.3036,47.64564990,-122.12144078,0.00000000,
0.3460,0.0980,-0.2608,0.9836,0.3052,0.0513,-0.4703,-0.2442,0.3822,-0.3430,291.2743,15.0521,5.0436,47.64564990,-122.12144078,0.00000000,
0.3560,0.0569,-0.2582,1.0001,0.3052,0.0513,-0.4703,-0.2442,0.3822,-0.3430,291.2743,15.0521,5.0436,47.64564990,-122.12144078,0.00000000,
0.3660,0.0569,-0.2582,1.0001,0.3052,0.0513,-0.4703,-0.0752,0.1315,-0.3674,291.2743,15.0521,5.0436,47.64564990,-122.12144078,0.00000000,
0.3760,0.0569,-0.2582,1.0001,-0.2588,0.4239,-0.1555,-0.0752,0.1315,-0.3674,291.2743,15.0521,5.0436,47.64564990,-122.12144078,0.00000000,
0.3860,0.0569,-0.2582,1.0001,-0.2588,0.4239,-0.1555,-0.0752,0.1315,-0.3674,291.9862,14.9495,5.1915,47.64564990,-122.12144078,0.00000000,
0.4160,0.0569,-0.2582,1.0001,-0.1277,1.1406,0.0967,-0.0752,0.1315,-0.3674,291.9862,14.9495,5.1915,47.64564990,-122.12144078,0.00000000,
0.4260,0.1094,-0.3237,0.9656,-0.1277,1.1406,0.0967,-0.0752,0.1315,-0.3674,291.9862,14.9495,5.1915,47.64564990,-122.12144078,0.00000000,
0.4270,0.1094,-0.3237,0.9656,-0.1277,1.1406,0.0967,-0.0752,0.1315,-0.3674,292.3627,15.6266,4.0429,47.64564990,-122.12144078,0.00000000,
0.4310,0.1094,-0.3237,0.9656,-0.1277,1.1406,0.0967,-0.2743,0.4975,-0.0505,292.3627,15.6266,4.0429,47.64564990,-122.12144078,0.00000000,
0.4560,0.1094,-0.3237,0.9656,-0.4535,2.2228,1.6175,-0.2743,0.4975,-0.0505,292.3627,15.6266,4.0429,47.64564990,-122.12144078,0.00000000,
0.4660,0.1094,-0.3237,0.9656,-0.4535,2.2228,1.6175,-0.2743,0.4975,-0.0505,292.4259,17.0586,1.1255,47.64564990,-122.12144078,0.00000000,
0.4860,0.0628,-0.5014,0.8224,-0.4535,2.2228,1.6175,-0.2743,0.4975,-0.0505,292.4259,17.0586,1.1255,47.64564990,-122.12144078,0.00000000,
0.4960,0.0628,-0.5014,0.8224,1.6893,3.9441,2.1736,-0.2743,0.4975,-0.0505,292.4259,17.0586,1.1255,47.64564990,-122.12144078,0.00000000,
0.4960,0.0628,-0.5014,0.8224,1.6893,3.9441,2.1736,-0.6626,1.3982,0.5542,292.4259,17.0586,1.1255,47.64564990,-122.12144078,0.00000000,
0.5050,0.0628,-0.5014,0.8224,1.6893,3.9441,2.1736,-0.6626,1.3982,0.5542,291.9007,18.5752,-2.5519,47.64564990,-122.12144078,0.00000000,
0.5360,0.0628,-0.5014,0.8224,0.7331,3.4000,2.5652,-0.6626,1.3982,0.5542,291.9007,18.5752,-2.5519,47.64564990,-122.12144078,0.00000000,
0.5450,0.0628,-0.5014,0.8224,0.7331,3.4000,2.5652,-0.6626,1.3982,0.5542,288.9678,20.0794,-6.1731,47.64564990,-122.12144078,0.00000000,
0.5560,-0.2168,-0.6947,0.6916,0.7331,3.4000,2.5652,-0.6626,1.3982,0.5542,288.9678,20.0794,-6.1731,47.64564990,-122.12144078,0.00000000,
0.5600,-0.2168,-0.6947,0.6916,0.7331,3.4000,2.5652,-0.7897,0.9558,1.7732,288.9678,20.0794,-6.1731,47.64564990,-122.12144078,0.00000000,
0.5750,-0.2168,-0.6947,0.6916,-0.2382,0.0897,-0.2341,-0.7897,0.9558,1.7732,288.9678,20.0794,-6.1731,47.64564990,-122.12144078,0.00000000,
0.5850,-0.2168,-0.6947,0.6916,-0.2382,0.0897,-0.2341,-0.7897,0.9558,1.7732,285.7972,21.9495,-8.9583,47.64564990,-122.12144078,0.00000000,
0.6150,-0.2168,-0.6947,0.6916,2.6882,2.0862,-1.4434,-0.7897,0.9558,1.7732,285.7972,21.9495,-8.9583,47.64564990,-122.12144078,0.00000000,
0.6250,-0.2168,-0.6947,0.6916,2.6882,2.0862,-1.4434,-1.5153,0.9874,1.5211,285.7972,21.9495,-8.9583,47.64565012,-122.12144126,0.25999999,
0.6260,-0.2703,-0.4841,0.9652,2.6882,2.0862,-1.4434,-1.5153,0.9874,1.5211,285.7972,21.9495,-8.9583,47.64565012,-122.12144126,0.25999999,
0.6260,-0.2703,-0.4841,0.9652,2.6882,2.0862,-1.4434,-1.5153,0.9874,1.5211,283.5591,25.3751,-12.6890,47.64565012,-122.12144126,0.25999999,
0.6550,-0.2703,-0.4841,0.9652,-2.4993,-2.4754,0.3101,-1.5153,0.9874,1.5211,283.5591,25.3751,-12.6890,47.64565012,-122.12144126,0.25999999,
0.6650,-0.2703,-0.4841,0.9652,-2.4993,-2.4754,0.3101,-1.5153,0.9874,1.5211,280.6545,28.5029,-17.4182,47.64565012,-122.12144126,0.25999999,
0.6840,-0.1849,-0.3233,0.8492,-2.4993,-2.4754,0.3101,-1.5153,0.9874,1.5211,280.6545,28.5029,-17.4182,47.64565012,-122.12144126,0.25999999,
0.6890,-0.1849,-0.3233,0.8492,-2.4993,-2.4754,0.3101,-1.6038,1.3127,1.7484,280.6545,28.5029,-17.4182,47.64565012,-122.12144126,0.25999999,
0.6950,-0.1849,-0.3233,0.8492,0.4917,0.1139,0.3159,-1.6038,1.3127,1.7484,280.6545,28.5029,-17.4182,47.64565012,-122.12144126,0.25999999,
0.7040,-0.1849,-0.3233,0.8492,0.4917,0.1139,0.3159,-1.6038,1.3127,1.7484,279.3302,31.5285,-21.6069,47.64565012,-122.12144126,0.25999999,
0.7350,-0.1849,-0.3233,0.8492,-0.0157,-0.7816,-1.9976,-1.6038,1.3127,1.7484,279.3302,31.5285,-21.6069,47.64565012,-122.12144126,0.25999999,
0.7440,-0.1849,-0.3233,0.8492,-0.0157,-0.7816,-1.9976,-1.6038,1.3127,1.7484,276.6227,34.1913,-26.0269,47.64565012,-122.12144126,0.25999999,
0.7550,-0.1849,-0.3233,0.8492,-0.0157,-0.7816,-1.9976,-1.5974,1.0350,1.9416,276.6227,34.1913,-26.0269,47.64565012,-122.12144126,0.25999999,
0.7550,-0.4218,-0.4554,0.8867,-0.0157,-0.7816,-1.9976,-1.5974,1.0350,1.9416,276.6227,34.1913,-26.0269,47.64565012,-122.12144126,0.25999999,
0.7750,-0.4218,-0.4554,0.8867,-2.1418,-4.9207,-3.4961,-1.5974,1.0350,1.9416,276.6227,34.1913,-26.0269,47.64565012,-122.12144126,0.25999999,
0.7840,-0.4218,-0.4554,0.8867,-2.1418,-4.9207,-3.4961,-1.5974,1.0350,1.9416,273.2975,35.4990,-30.2989,47.64565012,-122.12144126,0.25999999,
0.8140,-0.4218,-0.4554,0.8867,-0.3024,-4.1069,-3.3635,-1.5974,1.0350,1.9416,273.2975,35.4990,-30.2989,47.64565012,-122.12144126,0.25999999,
0.8190,-0.4218,-0.4554,0.8867,-0.3024,-4.1069,-3.3635,-0.9773,0.6155,1.5461,273.2975,35.4990,-30.2989,47.64565012,-122.12144126,0.25999999,
0.8240,-0.3658,-0.0160,1.0089,-0.3024,-4.1069,-3.3635,-0.9773,0.6155,1.5461,273.2975,35.4990,-30.2989,47.64565012,-122.12144126,0.25999999,
0.8240,-0.3658,-0.0160,1.0089,-0.3024,-4.1069,-3.3635,-0.9773,0.6155,1.5461,271.4007,36.4540,-32.9288,47.64565012,-122.12144126,0.25999999,
0.8540,-0.3658,-0.0160,1.0089,1.0310,-0.8442,-3.6512,-0.9773,0.6155,1.5461,271.4007,36.4540,-32.9288,47.64565012,-122.12144126,0.25999999,
0.8630,-0.3658,-0.0160,1.0089,1.0310,-0.8442,-3.6512,-0.9773,0.6155,1.5461,269.3074,36.6943,-34.5784,47.64565012,-122.12144126,0.25999999,
0.8860,-0.6037,-0.3683,1.0238,1.0310,-0.8442,-3.6512,-0.9773,0.6155,1.5461,269.3074,36.6943,-34.5784,47.64565012,-122.12144126,0.25999999,
0.8860,-0.6037,-0.3683,1.0238,1.0310,-0.8442,-3.6512,-0.4934,0.2205,1.0795,269.3074,36.6943,-34.5784,47.64565012,-122.12144126,0.25999999,
0.8930,-0.6037,-0.3683,1.0238,-1.3552,-0.7930,-3.2285,-0.4934,0.2205,1.0795,269.3074,36.6943,-34.5784,47.64565012,-122.12144126,0.25999999,
0.9030,-0.6037,-0.3683,1.0238,-1.3552,-0.7930,-3.2285,-0.4934,0.2205,1.0795,267.7961,36.2731,-36.9386,47.64565012,-122.12144126,0.25999999,
0.9340,-0.6037,-0.3683,1.0238,-0.1547,-0.4694,-0.0623,-0.4934,0.2205,1.0795,267.7961,36.2731,-36.9386,47.64565012,-122.12144126,0.25999999,
0.9430,-0.6037,-0.3683,1.0238,-0.1547,-0.4694,-0.0623,-0.4934,0.2205,1.0795,268.9857,35.9253,-40.5450,47.64565012,-122.12144126,0.25999999,
0.9480,-0.6037,-0.3683,1.0238,-0.1547,-0.4694,-0.0623,0.3861,1.3446,0.6479,268.9857,35.9253,-40.5450,47.64565012,-122.12144126,0.25999999,
0.9540,-0.5799,-0.4026,0.7606,-0.1547,-0.4694,-0.0623,0.3861,1.3446,0.6479,268.9857,35.9253,-40.5450,47.64565012,-122.12144126,0.25999999,
0.9740,-0.5799,-0.4026,0.7606,2.1932,1.2232,3.9623,0.3861,1.3446,0.6479,268.9857,35.9253,-40.5450,47.64565012,-122.12144126,0.25999999,
0.9830,-0.5799,-0.4026,0.7606,2.1932,1.2232,3.9623,0.3861,1.3446,0.6479,269.6227,35.2369,-43.3877,47.64565012,-122.12144126,0.25999999,
1.0130,-0.5799,-0.4026,0.7606,0.2386,-0.2142,1.8203,0.3861,1.3446,0.6479,269.6227,35.2369,-43.3877,47.64565012,-122.12144126,0.25999999,
1.0140,-0.5799,-0.4026,0.7606,0.2386,-0.2142,1.8203,-0.0463,0.7828,0.8009,269.6227,35.2369,-43.3877,47.64565012,-122.12144126,0.25999999,
1.0230,-0.8347,-0.4873,0.2513,0.2386,-0.2142,1.8203,-0.0463,0.7828,0.8009,269.6227,35.2369,-43.3877,47.64565012,-122.12144126,0.25999999,
1.0230,-0.8347,-0.4873,0.2513,0.2386,-0.2142,1.8203,-0.0463,0.7828,0.8009,268.1744,35.2864,-45.7631,47.64565012,-122.12144126,0.25999999,
1.0530,-0.8347,-0.4873,0.2513,-0.2734,1.4864,0.5149,-0.0463,0.7828,0.8009,268.1744,35.2864,-45.7631,47.64565012,-122.12144126,0.25999999,
1.0620,-0.8347,-0.4873,0.2513,-0.2734,1.4864,0.5149,-0.0463,0.7828,0.8009,267.1472,35.0901,-47.9291,47.64565012,-122.12144126,0.25999999,
1.0780,-0.8347,-0.4873,0.2513,-0.2734,1.4864,0.5149,-0.2413,0.6279,0.8154,267.1472,35.0901,-47.9291,47.64565012,-122.12144126,0.25999999,
1.0930,-0.6772,-0.5129,0.4796,-0.2734,1.4864,0.5149,-0.2413,0.6279,0.8154,267.1472,35.0901,-47.9291,47.64565012,-122.12144126,0.25999999,
1.0940,-0.6772,-0.5129,0.4796,-0.3680,0.9905,0.6010,-0.2413,0.6279,0.8154,267.1472,35.0901,-47.9291,47.64565012,-122.12144126,0.25999999,
1.1030,-0.6772,-0.5129,0.4796,-0.3680,0.9905,0.6010,-0.2413,0.6279,0.8154,266.0799,34.5503,-49.7735,47.64565012,-122.12144126,0.25999999,
1.1330,-0.6772,-0.5129,0.4796,-0.3775,0.8758,0.2327,-0.2413,0.6279,0.8154,266.0799,34.5503,-49.7735,47.64565012,-122.12144126,0.25999999,
1.1420,-0.6772,-0.5129,0.4796,-0.3775,0.8758,0.2327,-0.2413,0.6279,0.8154,264.1245,33.6266,-49.8716,47.64565012,-122.12144126,0.25999999,
1.1430,-0.6772,-0.5129,0.4796,-0.3775,0.8758,0.2327,-0.2093,-0.1494,0.5182,264.1245,33.6266,-49.8716,47.64565012,-122.12144126,0.25999999,
1.1530,-0.7239,-0.4824,0.5103,-0.3775,0.8758,0.2327,-0.2093,-0.1494,0.5182,264.1245,33.6266,-49.8716,47.64565012,-122.12144126,0.25999999,
1.1730,-0.7239,-0.4824,0.5103,0.8561,2.3462,1.1276,-0.2093,-0.1494,0.5182,264.1245,33.6266,-49.8716,47.64565012,-122.12144126,0.25999999,
1.1820,-0.7239,-0.4824,0.5103,0.8561,2.3462,1.1276,-0.2093,-0.1494,0.5182,262.1861,33.7564,-48.9391,47.64565012,-122.12144126,0.25999999,
1.2080,-0.7239,-0.4824,0.5103,0.8561,2.3462,1.1276,-0.7622,-0.5257,0.1438,262.1861,33.7564,-48.9391,47.64565012,-122.12144126,0.25999999,
1.2130,-0.7239,-0.4824,0.5103,-0.7750,1.1607,0.4343,-0.7622,-0.5257,0.1438,262.1861,33.7564,-48.9391,47.64565012,-122.12144126,0.25999999,
1.2220,-0.7479,-0.5612,0.4653,-0.7750,1.1607,0.4343,-0.7622,-0.5257,0.1438,262.1861,33.7564,-48.9391,47.64565012,-122.12144126,0.25999999,
1.2220,-0.7479,-0.5612,0.4653,-0.7750,1.1607,0.4343,-0.7622,-0.5257,0.1438,261.4208,34.9695,-48.4011,47.64565012,-122.12144126,0.25999999,
1.2520,-0.7479,-0.5612,0.4653,0.3253,0.7856,1.3558,-0.7622,-0.5257,0.1438,261.4208,34.9695,-48.4011,47.64565012,-122.12144126,0.25999999,
1.2620,-0.7479,-0.5612,0.4653,0.3253,0.7856,1.3558,-0.7622,-0.5257,0.1438,261.9133,36.3465,-48.4844,47.64565012,-122.12144126,0.25999999,
1.2720,-0.7479,-0.5612,0.4653,0.3253,0.7856,1.3558,-0.3629,-0.0162,-0.1124,261.9133,36.3465,-48.4844,47.64565012,-122.12144126,0.25999999,
1.2920,-0.7479,-0.5612,0.4653,0.4083,-0.3696,0.7615,-0.3629,-0.0162,-0.1124,261.9133,36.3465,-48.4844,47.64565012,-122.12144126,0.25999999,
1.2930,-0.7569,-0.4471,0.4290,0.4083,-0.3696,0.7615,-0.3629,-0.0162,-0.1124,261.9133,36.3465,-48.4844,47.64565012,-122.12144126,0.25999999,
1.3020,-0.7569,-0.4471,0.4290,0.4083,-0.3696,0.7615,-0.3629,-0.0162,-0.1124,261.9203,35.9484,-47.2722,47.64565012,-122.12144126,0.25999999,
1.3320,-0.7569,-0.4471,0.4290,-0.2429,-0.2736,-0.4816,-0.3629,-0.0162,-0.1124,261.9203,35.9484,-47.2722,47.64565012,-122.12144126,0.25999999,
1.3360,-0.7569,-0.4471,0.4290,-0.2429,-0.2736,-0.4816,0.0615,-0.7520,-0.2498,261.9203,35.9484,-47.2722,47.64565012,-122.12144126,0.25999999,
1.3410,-0.7569,-0.4471,0.4290,-0.2429,-0.2736,-0.4816,0.0615,-0.7520,-0.2498,260.7180,35.2053,-45.3404,47.64565012,-122.12144126,0.25999999,
1.3520,-0.7241,-0.3748,0.5758,-0.2429,-0.2736,-0.4816,0.0615,-0.7520,-0.2498,260.7180,35.2053,-45.3404,47.64565012,-122.12144126,0.25999999,
1.3710,-0.7241,-0.3748,0.5758,0.2492,0.8418,-0.8031,0.0615,-0.7520,-0.2498,260.7180,35.2053,-45.3404,47.64565012,-122.12144126,0.25999999,
1.3810,-0.7241,-0.3748,0.5758,0.2492,0.8418,-0.8031,0.0615,-0.7520,-0.2498,257.8311,35.4361,-43.0887,47.64565012,-122.12144126,0.25999999,
1.4010,-0.7241,-0.3748,0.5758,0.2492,0.8418,-0.8031,-1.3088,-1.0324,0.2268,257.8311,35.4361,-43.0887,47.64565012,-122.12144126,0.25999999,
1.4110,-0.7241,-0.3748,0.5758,-0.3574,0.5030,0.8367,-1.3088,-1.0324,0.2268,257.8311,35.4361,-43.0887,47.64565012,-122.12144126,0.25999999,
1.4210,-0.6838,-0.5242,0.5991,-0.3574,0.5030,0.8367,-1.3088,-1.0324,0.2268,257.8311,35.4361,-43.0887,47.64565012,-122.12144126,0.25999999,
1.4210,-0.6838,-0.5242,0.5991,-0.3574,0.5030,0.8367,-1.3088,-1.0324,0.2268,256.4041,38.5838,-42.6093,47.64565012,-122.12144126,0.25999999,
1.4510,-0.6838,-0.5242,0.5991,0.6317,0.5265,0.9907,-1.3088,-1.0324,0.2268,256.4041,38.5838,-42.6093,47.64565012,-122.12144126,0.25999999,
1.4610,-0.6838,-0.5242,0.5991,0.6317,0.5265,0.9907,-1.3088,-1.0324,0.2268,257.1449,42.2555,-42.9324,47.64565012,-122.12144126,0.25999999,
1.4660,-0.6838,-0.5242,0.5991,0.6317,0.5265,0.9907,-1.4034,0.2663,-0.0437,257.1449,42.2555,-42.9324,47.64565012,-122.12144126,0.25999999,
1.4920,-0.7236,-0.5510,0.4115,0.6317,0.5265,0.9907,-1.4034,0.2663,-0.0437,257.1449,42.2555,-42.9324,47.64565012,-122.12144126,0.25999999,
1.4920,-0.7236,-0.5510,0.4115,0.8340,0.4840,0.7665,-1.4034,0.2663,-0.0437,257.1449,42.2555,-42.9324,47.64565012,-122.12144126,0.25999999,
1.5010,-0.7236,-0.5510,0.4115,0.8340,0.4840,0.7665,-1.4034,0.2663,-0.0437,259.6875,45.1187,-44.0978,47.64565012,-122.12144126,0.25999999,
1.5310,-0.7236,-0.5510,0.4115,1.7690,1.5150,-1.3144,-1.4034,0.2663,-0.0437,259.6875,45.1187,-44.0978,47.64565012,-122.12144126,0.25999999,
1.5320,-0.7236,-0.5510,0.4115,1.7690,1.5150,-1.3144,-0.3473,1.5769,-0.2642,259.6875,45.1187,-44.0978,47.64565012,-122.12144126,0.25999999,
1.5410,-0.7236,-0.5510,0.4115,1.7690,1.5150,-1.3144,-0.3473,1.5769,-0.2642,265.8087,50.3102,-47.2072,47.64565012,-122.12144126,0.25999999,
1.5510,-0.9129,-0.6813,0.5362,1.7690,1.5150,-1.3144,-0.3473,1.5769,-0.2642,265.8087,50.3102,-47.2072,47.64565012,-122.12144126,0.25999999,
1.5710,-0.9129,-0.6813,0.5362,1.3222,1.4302,0.6759,-0.3473,1.5769,-0.2642,265.8087,50.3102,-47.2072,47.64565012,-122.12144126,0.25999999,
1.5810,-0.9129,-0.6813,0.5362,1.3222,1.4302,0.6759,-0.3473,1.5769,-0.2642,275.8351,58.1341,-54.0064,47.64565012,-122.12144126,0.25999999,
1.5960,-0.9129,-0.6813,0.5362,1.3222,1.4302,0.6759,-0.1141,4.2814,0.8931,275.8351,58.1341,-54.0064,47.64565012,-122.12144126,0.25999999,
1.6110,-0.9129,-0.6813,0.5362,-3.3843,-2.2747,-2.0262,-0.1141,4.2814,0.8931,275.8351,58.1341,-54.0064,47.64565012,-122.12144126,0.25999999,
1.6200,-0.7467,-0.4666,0.3115,-3.3843,-2.2747,-2.0262,-0.1141,4.2814,0.8931,275.8351,58.1341,-54.0064,47.64565012,-122.12144126,0.25999999,
1.6210,-0.7467,-0.4666,0.3115,-3.3843,-2.2747,-2.0262,-0.1141,4.2814,0.8931,294.8333,74.6964,-61.7843,47.64565012,-122.12144126,0.25999999,
1.6510,-0.7467,-0.4666,0.3115,-1.0291,-1.4985,2.0685,-0.1141,4.2814,0.8931,294.8333,74.6964,-61.7843,47.64565012,-122.12144126,0.25999999,
1.6600,-0.7467,-0.4666,0.3115,-1.0291,-1.4985,2.0685,0.6072,4.2867,0.6517,294.8333,74.6964,-61.7843,47.64565012,-122.12144126,0.25999999,
1.6610,-0.7467,-0.4666,0.3115,-1.0291,-1.4985,2.0685,0.6072,4.2867,0.6517,314.6868,90.5471,-63.8101,47.64565012,-122.12144126,0.25999999,
1.6900,-0.6934,-0.2162,0.0155,-1.0291,-1.4985,2.0685,0.6072,4.2867,0.6517,314.6868,90.5471,-63.8101,47.64565012,-122.12144126,0.25999999,
1.6900,-0.6934,-0.2162,0.0155,0.2890,-0.5199,-1.0277,0.6072,4.2867,0.6517,314.6868,90.5471,-63.8101,47.64565012,-122.12144126,0.25999999,
1.7000,-0.6934,-0.2162,0.0155,0.2890,-0.5199,-1.0277,0.6072,4.2867,0.6517,315.3679,87.7303,-64.7744,47.64565012,-122.12144126,0.25999999,
1.7250,-0.6934,-0.2162,0.0155,0.2890,-0.5199,-1.0277,1.2249,-0.3466,0.3071,315.3679,87.7303,-64.7744,47.64565012,-122.12144126,0.25999999,
1.7300,-0.6934,-0.2162,0.0155,-0.2539,-1.7540,0.1006,1.2249,-0.3466,0.3071,315.3679,87.7303,-64.7744,47.64565012,-122.12144126,0.25999999,
1.7400,-0.6934,-0.2162,0.0155,-0.2539,-1.7540,0.1006,1.2249,-0.3466,0.3071,310.6732,81.4771,-64.6528,47.64565012,-122.12144126,0.25999999,
1.7600,-0.9139,-0.3163,0.0907,-0.2539,-1.7540,0.1006,1.2249,-0.3466,0.3071,310.6732,81.4771,-64.6528,47.64565012,-122.12144126,0.25999999,
1.7700,-0.9139,-0.3163,0.0907,0.7219,1.8726,0.2757,1.2249,-0.3466,0.3071,310.6732,81.4771,-64.6528,47.64565012,-122.12144126,0.25999999,
1.7800,-0.9139,-0.3163,0.0907,0.7219,1.8726,0.2757,1.2249,-0.3466,0.3071,306.3596,76.4929,-63.1235,47.64565012,-122.12144126,0.25999999,
1.7900,-0.9139,-0.3163,0.0907,0.7219,1.8726,0.2757,0.5075,-0.9219,-0.4324,306.3596,76.4929,-63.1235,47.64565012,-122.12144126,0.25999999,
1.8100,-0.9139,-0.3163,0.0907,-1.4967,1.4563,1.8029,0.5075,-0.9219,-0.4324,306.3596,76.4929,-63.1235,47.64565012,-122.12144126,0.25999999,
1.8210,-0.8182,-0.5372,0.0084,-1.4967,1.4563,1.8029,0.5075,-0.9219,-0.4324,306.3596,76.4929,-63.1235,47.64565012,-122.12144126,0.25999999,
1.8210,-0.8182,-0.5372,0.0084,-1.4967,1.4563,1.8029,0.5075,-0.9219,-0.4324,302.6673,72.4288,-61.3750,47.64565012,-122.12144126,0.25999999,
1.8500,-0.8182,-0.5372,0.0084,-0.2173,0.9823,-0.5507,0.5075,-0.9219,-0.4324,302.6673,72.4288,-61.3750,47.64565012,-122.12144126,0.25999999,
1.8540,-0.8182,-0.5372,0.0084,-0.2173,0.9823,-0.5507,0.3505,-0.9150,-0.6073,302.6673,72.4288,-61.3750,47.64565012,-122.12144126,0.25999999,
1.8590,-0.8182,-0.5372,0.0084,-0.2173,0.9823,-0.5507,0.3505,-0.9150,-0.6073,299.9057,69.1239,-59.4940,47.64565012,-122.12144126,0.25999999,
1.8900,-0.8182,-0.5372,0.0084,-0.6276,-0.2287,0.3542,0.3505,-0.9150,-0.6073,299.9057,69.1239,-59.4940,47.64565012,-122.12144126,0.25999999,
1.8900,-0.8447,-0.5857,0.1778,-0.6276,-0.2287,0.3542,0.3505,-0.9150,-0.6073,299.9057,69.1239,-59.4940,47.64565012,-122.12144126,0.25999999,
1.8990,-0.8447,-0.5857,0.1778,-0.6276,-0.2287,0.3542,0.3505,-0.9150,-0.6073,300.6339,68.5370,-58.7322,47.64565012,-122.12144126,0.25999999,
1.9190,-0.8447,-0.5857,0.1778,-0.6276,-0.2287,0.3542,0.5354,-0.0216,-0.4040,300.6339,68.5370,-58.7322,47.64565012,-122.12144126,0.25999999,
1.9290,-0.8447,-0.5857,0.1778,-1.1154,-3.8971,-0.5986,0.5354,-0.0216,-0.4040,300.6339,68.5370,-58.7322,47.64565012,-122.12144126,0.25999999,
1.9390,-0.8447,-0.5857,0.1778,-1.1154,-3.8971,-0.5986,0.5354,-0.0216,-0.4040,300.5444,67.1390,-57.3431,47.64565012,-122.12144126,0.25999999,
1.9590,-0.7229,-0.1255,0.2913,-1.1154,-3.8971,-0.5986,0.5354,-0.0216,-0.4040,300.5444,67.1390,-57.3431,47.64565012,-122.12144126,0.25999999,
1.9690,-0.7229,-0.1255,0.2913,-1.3681,-4.0098,4.8410,0.5354,-0.0216,-0.4040,300.5444,67.1390,-57.3431,47.64565012,-122.12144126,0.25999999,
1.9790,-0.7229,-0.1255,0.2913,-1.3681,-4.0098,4.8410,0.5354,-0.0216,-0.4040,304.4774,68.5580,-53.7825,47.64565012,-122.12144126,0.25999999,
1.9830,-0.7229,-0.1255,0.2913,-1.3681,-4.0098,4.8410,0.7162,0.2748,-1.6890,304.4774,68.5580,-53.7825,47.64565012,-122.12144126,0.25999999,
2.0080,-0.7229,-0.1255,0.2913,-3.9532,-6.4154,-0.6146,0.7162,0.2748,-1.6890,304.4774,68.5580,-53.7825,47.64565012,-122.12144126,0.25999999,
2.0180,-0.6595,-0.1343,0.1406,-3.9532,-6.4154,-0.6146,0.7162,0.2748,-1.6890,304.4774,68.5580,-53.7825,47.64565012,-122.12144126,0.25999999,
2.0190,-0.6595,-0.1343,0.1406,-3.9532,-6.4154,-0.6146,0.7162,0.2748,-1.6890,310.7014,71.4998,-48.2891,47.64565012,-122.12144126,0.25999999,
2.0490,-0.6595,-0.1343,0.1406,-3.9532,-6.4154,-0.6146,0.8404,0.1396,-3.3011,310.7014,71.4998,-48.2891,47.64565012,-122.12144126,0.25999999,
2.0500,-0.6595,-0.1343,0.1406,-1.8210,2.1183,-2.7211,0.8404,0.1396,-3.3011,310.7014,71.4998,-48.2891,47.64565012,-122.12144126,0.25999999,
2.0590,-0.6595,-0.1343,0.1406,-1.8210,2.1183,-2.7211,0.8404,0.1396,-3.3011,313.3382,71.7371,-40.6930,47.64565012,-122.12144126,0.25999999,
2.0890,-0.3859,-0.8204,0.2565,-1.8210,2.1183,-2.7211,0.8404,0.1396,-3.3011,313.3382,71.7371,-40.6930,47.64565012,-122.12144126,0.25999999,
2.0900,-0.3859,-0.8204,0.2565,-6.4344,-0.0427,-0.3149,0.8404,0.1396,-3.3011,313.3382,71.7371,-40.6930,47.64565012,-122.12144126,0.25999999,
2.0980,-0.3859,-0.8204,0.2565,-6.4344,-0.0427,-0.3149,0.8404,0.1396,-3.3011,316.1918,74.2459,-35.8953,47.64565012,-122.12144126,0.25999999,
2.1130,-0.3859,-0.8204,0.2565,-6.4344,-0.0427,-0.3149,-0.5293,0.0743,-2.8101,316.1918,74.2459,-35.8953,47.64565012,-122.12144126,0.25999999,
2.1270,-0.3859,-0.8204,0.2565,-3.9470,2.3308,-0.5241,-0.5293,0.0743,-2.8101,316.1918,74.2459,-35.8953,47.64565012,-122.12144126,0.25999999,
2.1380,-0.3859,-0.8204,0.2565,-3.9470,2.3308,-0.5241,-0.5293,0.0743,-2.8101,317.2519,77.8036,-24.9455,47.64565012,-122.12144126,0.25999999,
2.1580,0.0238,-0.8470,0.2444,-3.9470,2.3308,-0.5241,-0.5293,0.0743,-2.8101,317.2519,77.8036,-24.9455,47.64565012,-122.12144126,0.25999999,
2.1670,0.0238,-0.8470,0.2444,8.0879,10.6770,4.1379,-0.5293,0.0743,-2.8101,317.2519,77.8036,-24.9455,47.64565012,-122.12144126,0.25999999,
2.1780,0.0238,-0.8470,0.2444,8.0879,10.6770,4.1379,-1.5278,-0.1347,-5.1757,317.2519,77.8036,-24.9455,47.64565012,-122.12144126,0.25999999,
2.1780,0.0238,-0.8470,0.2444,8.0879,10.6770,4.1379,-1.5278,-0.1347,-5.1757,320.2068,82.3928,-13.0369,47.64565012,-122.12144126,0.25999999,
2.2080,0.0238,-0.8470,0.2444,-0.3489,1.8798,-0.5625,-1.5278,-0.1347,-5.1757,320.2068,82.3928,-13.0369,47.64565012,-122.12144126,0.25999999,
2.2180,-0.6674,-1.7936,0.0180,-0.3489,1.8798,-0.5625,-1.5278,-0.1347,-5.1757,320.2068,82.3928,-13.0369,47.64565012,-122.12144126,0.25999999,
2.2180,-0.6674,-1.7936,0.0180,-0.3489,1.8798,-0.5625,-1.5278,-0.1347,-5.1757,320.4173,83.9487,-10.4040,47.64565012,-122.12144126,0.25999999,
2.2420,-0.6674,-1.7936,0.0180,-0.3489,1.8798,-0.5625,-0.4213,-0.1596,-0.5476,320.4173,83.9487,-10.4040,47.64565012,-122.12144126,0.25999999,
2.2470,-0.6674,-1.7936,0.0180,-2.8711,-0.1886,3.2385,-0.4213,-0.1596,-0.5476,320.4173,83.9487,-10.4040,47.64565012,-122.12144126,0.25999999,
2.2570,-0.6674,-1.7936,0.0180,-2.8711,-0.1886,3.2385,-0.4213,-0.1596,-0.5476,320.0721,84.9297,-10.1347,47.64565012,-122.12144126,0.25999999,
2.2870,0.0532,-1.0386,0.0120,-2.8711,-0.1886,3.2385,-0.4213,-0.1596,-0.5476,320.0721,84.9297,-10.1347,47.64565012,-122.12144126,0.25999999,
2.2880,0.0532,-1.0386,0.0120,-0.7885,2.8863,-1.3350,-0.4213,-0.1596,-0.5476,320.0721,84.9297,-10.1347,47.64565012,-122.12144126,0.25999999,
2.2970,0.0532,-1.0386,0.0120,-0.7885,2.8863,-1.3350,-0.4213,-0.1596,-0.5476,318.9019,86.8588,-9.5158,47.64565012,-122.12144126,0.25999999,
2.3070,0.0532,-1.0386,0.0120,-0.7885,2.8863,-1.3350,-0.7830,-0.5368,-0.2225,318.9019,86.8588,-9.5158,47.64565012,-122.12144126,0.25999999,
2.3270,0.0532,-1.0386,0.0120,0.3608,0.9564,0.0439,-0.7830,-0.5368,-0.2225,318.9019,86.8588,-9.5158,47.64565012,-122.12144126,0.25999999,
2.3370,0.0532,-1.0386,0.0120,0.3608,0.9564,0.0439,-0.7830,-0.5368,-0.2225,316.7067,86.8491,-8.4052,47.64565012,-122.12144126,0.25999999,
2.3570,-0.1675,-1.1247,0.0519,0.3608,0.9564,0.0439,-0.7830,-0.5368,-0.2225,316.7067,86.8491,-8.4052,47.64565012,-122.12144126,0.25999999,
2.3670,-0.1675,-1.1247,0.0519,1.4730,2.1049,3.4758,-0.7830,-0.5368,-0.2225,316.7067,86.8491,-8.4052,47.64565012,-122.12144126,0.25999999,
2.3710,-0.1675,-1.1247,0.0519,1.4730,2.1049,3.4758,-0.1050,-1.4584,-0.4817,316.7067,86.8491,-8.4052,47.64565012,-122.12144126,0.25999999,
2.3770,-0.1675,-1.1247,0.0519,1.4730,2.1049,3.4758,-0.1050,-1.4584,-0.4817,312.7278,86.6424,-7.1261,47.64565012,-122.12144126,0.25999999,
2.4070,-0.1675,-1.1247,0.0519,-4.3848,-4.1147,-2.0348,-0.1050,-1.4584,-0.4817,312.7278,86.6424,-7.1261,47.64565012,-122.12144126,0.25999999,
2.4160,-0.1675,-1.1247,0.0519,-4.3848,-4.1147,-2.0348,-0.1050,-1.4584,-0.4817,310.7457,86.1274,-6.8015,47.64565012,-122.12144126,0.25999999,
2.4270,-0.1431,-1.0225,0.0320,-4.3848,-4.1147,-2.0348,-0.1050,-1.4584,-0.4817,310.7457,86.1274,-6.8015,47.64565012,-122.12144126,0.25999999,
2.4360,-0.1431,-1.0225,0.0320,-4.3848,-4.1147,-2.0348,0.0579,0.0424,-0.0287,310.7457,86.1274,-6.8015,47.64565012,-122.12144126,0.25999999,
2.4460,-0.1431,-1.0225,0.0320,-0.0823,-2.6540,-1.3345,0.0579,0.0424,-0.0287,310.7457,86.1274,-6.8015,47.64565012,-122.12144126,0.25999999,
2.4560,-0.1431,-1.0225,0.0320,-0.0823,-2.6540,-1.3345,0.0579,0.0424,-0.0287,313.1237,86.4155,-7.3408,47.64565012,-122.12144126,0.25999999,
2.4870,-0.3209,-0.8297,0.0260,-0.0823,-2.6540,-1.3345,0.0579,0.0424,-0.0287,313.1237,86.4155,-7.3408,47.64565012,-122.12144126,0.25999999,
2.4880,-0.3209,-0.8297,0.0260,1.4016,0.2417,1.6564,0.0579,0.0424,-0.0287,313.1237,86.4155,-7.3408,47.64565012,-122.12144126,0.25999999,
2.4960,-0.3209,-0.8297,0.0260,1.4016,0.2417,1.6564,0.0579,0.0424,-0.0287,313.1895,86.1597,-8.3686,47.64565012,-122.12144126,0.25999999,
2.5000,-0.3209,-0.8297,0.0260,1.4016,0.2417,1.6564,0.1071,0.2172,0.4203,313.1895,86.1597,-8.3686,47.64565012,-122.12144126,0.25999999,
2.5270,-0.3209,-0.8297,0.0260,-1.2270,-0.0758,0.2857,0.1071,0.2172,0.4203,313.1895,86.1597,-8.3686,47.64565012,-122.12144126,0.25999999,
2.5360,-0.3209,-0.8297,0.0260,-1.2270,-0.0758,0.2857,0.1071,0.2172,0.4203,315.0073,86.2192,-9.3854,47.64565012,-122.12144126,0.25999999,
2.5560,-0.0743,-1.0275,-0.0295,-1.2270,-0.0758,0.2857,0.1071,0.2172,0.4203,315.0073,86.2192,-9.3854,47.64565012,-122.12144126,0.25999999,
2.5650,-0.0743,-1.0275,-0.0295,-1.2270,-0.0758,0.2857,0.0164,0.4467,0.2226,315.0073,86.2192,-9.3854,47.64565012,-122.12144126,0.25999999,
2.5660,-0.0743,-1.0275,-0.0295,-0.3030,0.2769,0.7539,0.0164,0.4467,0.2226,315.0073,86.2192,-9.3854,47.64565012,-122.12144126,0.25999999,
2.5760,-0.0743,-1.0275,-0.0295,-0.3030,0.2769,0.7539,0.0164,0.4467,0.2226,315.0938,86.4406,-9.5903,47.64565012,-122.12144126,0.25999999,
2.6060,-0.0743,-1.0275,-0.0295,-0.8476,0.2439,0.4296,0.0164,0.4467,0.2226,315.0938,86.4406,-9.5903,47.64565012,-122.12144126,0.25999999,
2.6150,-0.0743,-1.0275,-0.0295,-0.8476,0.2439,0.4296,0.0164,0.4467,0.2226,313.2163,86.8320,-9.2525,47.64565012,-122.12144126,0.25999999,
2.6250,-0.0935,-1.0055,0.0088,-0.8476,0.2439,0.4296,0.0164,0.4467,0.2226,313.2163,86.8320,-9.2525,47.64565012,-122.12144126,0.25999999,
2.6300,-0.0935,-1.0055,0.0088,-0.8476,0.2439,0.4296,-0.2778,-0.6088,-0.0577,313.2163,86.8320,-9.2525,47.64565012,-122.12144126,0.25999999,
2.6460,-0.0935,-1.0055,0.0088,-0.3592,-0.3266,-0.0534,-0.2778,-0.6088,-0.0577,313.2163,86.8320,-9.2525,47.64565012,-122.12144126,0.25999999,
2.6560,-0.0935,-1.0055,0.0088,-0.3592,-0.3266,-0.0534,-0.2778,-0.6088,-0.0577,313.0691,87.2204,-9.1970,47.64565012,-122.12144126,0.25999999,
2.6850,-0.0935,-1.0055,0.0088,0.8365,0.3908,-0.3642,-0.2778,-0.6088,-0.0577,313.0691,87.2204,-9.1970,47.64565012,-122.12144126,0.25999999,
2.6860,-0.1523,-0.9947,0.0583,0.8365,0.3908,-0.3642,-0.2778,-0.6088,-0.0577,313.0691,87.2204,-9.1970,47.64565012,-122.12144126,0.25999999,
2.6950,-0.1523,-0.9947,0.0583,0.8365,0.3908,-0.3642,-0.0696,0.1868,0.0126,313.0691,87.2204,-9.1970,47.64565012,-122.12144126,0.25999999,
2.6960,-0.1523,-0.9947,0.0583,0.8365,0.3908,-0.3642,-0.0696,0.1868,0.0126,313.4861,87.4261,-9.2943,47.64565012,-122.12144126,0.25999999,
2.7250,-0.1523,-0.9947,0.0583,-0.7543,-0.1628,0.1336,-0.0696,0.1868,0.0126,313.4861,87.4261,-9.2943,47.64565012,-122.12144126,0.25999999,
2.7350,-0.1523,-0.9947,0.0583,-0.7543,-0.1628,0.1336,-0.0696,0.1868,0.0126,315.2133,87.3977,-9.8088,47.64565012,-122.12144126,0.25999999,
2.7550,-0.1593,-0.9980,0.0248,-0.7543,-0.1628,0.1336,-0.0696,0.1868,0.0126,315.2133,87.3977,-9.8088,47.64565012,-122.12144126,0.25999999,
2.7590,-0.1593,-0.9980,0.0248,-0.7543,-0.1628,0.1336,0.0851,0.6905,0.2014,315.2133,87.3977,-9.8088,47.64565012,-122.12144126,0.25999999,
2.7650,-0.1593,-0.9980,0.0248,-0.1131,0.4502,0.7594,0.0851,0.6905,0.2014,315.2133,87.3977,-9.8088,47.64565012,-122.12144126,0.25999999,
2.7750,-0.1593,-0.9980,0.0248,-0.1131,0.4502,0.7594,0.0851,0.6905,0.2014,316.3194,87.6433,-10.2042,47.64565012,-122.12144126,0.25999999,
2.8050,-0.1593,-0.9980,0.0248,0.0172,-0.6350,0.7200,0.0851,0.6905,0.2014,316.3194,87.6433,-10.2042,47.64565012,-122.12144126,0.25999999,
2.8140,-0.1593,-0.9980,0.0248,0.0172,-0.6350,0.7200,0.0851,0.6905,0.2014,315.7704,87.9288,-9.8708,47.64565012,-122.12144126,0.25999999,
2.8240,-0.1593,-0.9980,0.0248,0.0172,-0.6350,0.7200,-0.1627,-0.2247,-0.2218,315.7704,87.9288,-9.8708,47.64565012,-122.12144126,0.25999999,
2.8250,-0.2199,-0.9512,-0.0199,0.0172,-0.6350,0.7200,-0.1627,-0.2247,-0.2218,315.7704,87.9288,-9.8708,47.64565012,-122.12144126,0.25999999,
2.8440,-0.2199,-0.9512,-0.0199,-0.2831,0.5400,1.1273,-0.1627,-0.2247,-0.2218,315.7704,87.9288,-9.8708,47.64565012,-122.12144126,0.25999999,
2.8550,-0.2199,-0.9512,-0.0199,-0.2831,0.5400,1.1273,-0.1627,-0.2247,-0.2218,315.2004,87.9563,-7.8827,47.64565012,-122.12144126,0.25999999,
2.8840,-0.2199,-0.9512,-0.0199,-1.7962,-0.6159,0.6439,-0.1627,-0.2247,-0.2218,315.2004,87.9563,-7.8827,47.64565012,-122.12144126,0.25999999,
2.8850,-0.0540,-0.9930,-0.0140,-1.7962,-0.6159,0.6439,-0.1627,-0.2247,-0.2218,315.2004,87.9563,-7.8827,47.64565012,-122.12144126,0.25999999,
2.8890,-0.0540,-0.9930,-0.0140,-1.7962,-0.6159,0.6439,0.0475,-0.0923,-0.7911,315.2004,87.9563,-7.8827,47.64565012,-122.12144126,0.25999999,
2.8940,-0.0540,-0.9930,-0.0140,-1.7962,-0.6159,0.6439,0.0475,-0.0923,-0.7911,315.1653,87.8335,-6.3828,47.64565012,-122.12144126,0.25999999,
2.9240,-0.0540,-0.9930,-0.0140,1.0775,1.1403,0.7874,0.0475,-0.0923,-0.7911,315.1653,87.8335,-6.3828,47.64565012,-122.12144126,0.25999999,
2.9340,-0.0540,-0.9930,-0.0140,1.0775,1.1403,0.7874,0.0475,-0.0923,-0.7911,315.2133,88.2380,-5.1608,47.64565012,-122.12144126,0.25999999,
2.9540,-0.0540,-0.9930,-0.0140,1.0775,1.1403,0.7874,-0.1945,-0.0451,-0.6087,315.2133,88.2380,-5.1608,47.64565012,-122.12144126,0.25999999,
2.9540,-0.1705,-0.8658,-0.0147,1.0775,1.1403,0.7874,-0.1945,-0.0451,-0.6087,315.2133,88.2380,-5.1608,47.64565012,-122.12144126,0.25999999,
2.9630,-0.1705,-0.8658,-0.0147,0.5523,-0.9224,0.5180,-0.1945,-0.0451,-0.6087,315.2133,88.2380,-5.1608,47.64565012,-122.12144126,0.25999999,
2.9740,-0.1705,-0.8658,-0.0147,0.5523,-0.9224,0.5180,-0.1945,-0.0451,-0.6087,315.1152,88.5829,-3.1501,47.64565012,-122.12144126,0.25999999,
3.0030,-0.1705,-0.8658,-0.0147,0.4726,-0.5595,1.8025,-0.1945,-0.0451,-0.6087,315.1152,88.5829,-3.1501,47.64565012,-122.12144126,0.25999999,
3.0130,-0.1705,-0.8658,-0.0147,0.4726,-0.5595,1.8025,-0.1945,-0.0451,-0.6087,314.5730,88.7839,-0.1888,47.64565012,-122.12144126,0.25999999,
3.0190,-0.1705,-0.8658,-0.0147,0.4726,-0.5595,1.8025,-0.1061,-0.2865,-1.2893,314.5730,88.7839,-0.1888,47.64565012,-122.12144126,0.25999999,
3.0230,-0.0813,-0.9052,-0.0735,0.4726,-0.5595,1.8025,-0.1061,-0.2865,-1.2893,314.5730,88.7839,-0.1888,47.64565012,-122.12144126,0.25999999,
3.0430,-0.0813,-0.9052,-0.0735,-2.1105,-0.5042,-0.1039,-0.1061,-0.2865,-1.2893,314.5730,88.7839,-0.1888,47.64565012,-122.12144126,0.25999999,
3.0530,-0.0813,-0.9052,-0.0735,-2.1105,-0.5042,-0.1039,-0.1061,-0.2865,-1.2893,313.1252,89.8048,2.7557,47.64565012,-122.12144126,0.25999999,
3.0830,-0.0813,-0.9052,-0.0735,-2.1105,-0.5042,-0.1039,-0.4293,-0.3873,-1.3030,313.1252,89.8048,2.7557,47.64565012,-122.12144126,0.25999999,
3.0840,-0.0813,-0.9052,-0.0735,-0.4439,3.1364,0.7515,-0.4293,-0.3873,-1.3030,313.1252,89.8048,2.7557,47.64565012,-122.12144126,0.25999999,
3.0930,0.2017,-1.1012,-0.0021,-0.4439,3.1364,0.7515,-0.4293,-0.3873,-1.3030,313.1252,89.8048,2.7557,47.64565012,-122.12144126,0.25999999,
3.0940,0.2017,-1.1012,-0.0021,-0.4439,3.1364,0.7515,-0.4293,-0.3873,-1.3030,312.5684,90.7202,5.8323,47.64565012,-122.12144126,0.25999999,
3.1230,0.2017,-1.1012,-0.0021,-1.7123,0.7326,0.0368,-0.4293,-0.3873,-1.3030,312.5684,90.7202,5.8323,47.64565012,-122.12144126,0.25999999,
3.1330,0.2017,-1.1012,-0.0021,-1.7123,0.7326,0.0368,-0.4293,-0.3873,-1.3030,311.4656,91.4156,6.6799,47.64565012,-122.12144126,0.25999999,
3.1480,0.2017,-1.1012,-0.0021,-1.7123,0.7326,0.0368,-0.2065,-0.4112,-0.3010,311.4656,91.4156,6.6799,47.64565012,-122.12144126,0.25999999,
3.1530,0.1844,-1.1311,-0.0410,-1.7123,0.7326,0.0368,-0.2065,-0.4112,-0.3010,311.4656,91.4156,6.6799,47.64565012,-122.12144126,0.25999999,
3.1630,0.1844,-1.1311,-0.0410,0.4287,0.9906,0.1695,-0.2065,-0.4112,-0.3010,311.4656,91.4156,6.6799,47.64565012,-122.12144126,0.25999999,
3.1740,0.1844,-1.1311,-0.0410,0.4287,0.9906,0.1695,-0.2065,-0.4112,-0.3010,311.0115,91.4631,6.5457,47.64565012,-122.12144126,0.25999999,
3.2030,0.1844,-1.1311,-0.0410,-0.5457,1.0424,0.7689,-0.2065,-0.4112,-0.3010,311.0115,91.4631,6.5457,47.64565012,-122.12144126,0.25999999,
3.2120,0.1844,-1.1311,-0.0410,-0.5457,1.0424,0.7689,0.1261,-0.0696,0.0874,311.0115,91.4631,6.5457,47.64565012,-122.12144126,0.25999999,
3.2130,0.1844,-1.1311,-0.0410,-0.5457,1.0424,0.7689,0.1261,-0.0696,0.0874,310.9562,91.1848,6.3129,47.64565012,-122.12144126,0.25999999,
3.2230,0.1264,-1.0811,-0.0522,-0.5457,1.0424,0.7689,0.1261,-0.0696,0.0874,310.9562,91.1848,6.3129,47.64565012,-122.12144126,0.25999999,
3.2430,0.1264,-1.0811,-0.0522,-0.1652,-0.6408,0.0703,0.1261,-0.0696,0.0874,310.9562,91.1848,6.3129,47.64565012,-122.12144126,0.25999999,
3.2520,0.1264,-1.0811,-0.0522,-0.1652,-0.6408,0.0703,0.1261,-0.0696,0.0874,310.5497,90.9238,5.9363,47.64565012,-122.12144126,0.25999999,
3.2780,0.1264,-1.0811,-0.0522,-0.1652,-0.6408,0.0703,0.1504,-0.0569,0.1485,310.5497,90.9238,5.9363,47.64565012,-122.12144126,0.25999999,
3.2820,0.1264,-1.0811,-0.0522,-0.5989,0.1241,0.3932,0.1504,-0.0569,0.1485,310.5497,90.9238,5.9363,47.64565012,-122.12144126,0.25999999,
3.2920,0.1221,-0.9674,-0.0510,-0.5989,0.1241,0.3932,0.1504,-0.0569,0.1485,310.5497,90.9238,5.9363,47.64565012,-122.12144126,0.25999999,
3.2920,0.1221,-0.9674,-0.0510,-0.5989,0.1241,0.3932,0.1504,-0.0569,0.1485,310.7154,90.5508,5.7096,47.64565012,-122.12144126,0.25999999,
3.3220,0.1221,-0.9674,-0.0510,0.1031,1.5471,0.7143,0.1504,-0.0569,0.1485,310.7154,90.5508,5.7096,47.64565012,-122.12144126,0.25999999,
3.3310,0.1221,-0.9674,-0.0510,0.1031,1.5471,0.7143,0.1504,-0.0569,0.1485,309.1738,90.5957,5.3037,47.64565012,-122.12144126,0.25999999,
3.3420,0.1221,-0.9674,-0.0510,0.1031,1.5471,0.7143,0.0648,-0.6877,0.2373,309.1738,90.5957,5.3037,47.64565012,-122.12144126,0.25999999,
3.3520,0.1133,-1.1087,-0.0651,0.1031,1.5471,0.7143,0.0648,-0.6877,0.2373,309.1738,90.5957,5.3037,47.64565012,-122.12144126,0.25999999,
3.3620,0.1133,-1.1087,-0.0651,0.1981,-0.4691,-1.0817,0.0648,-0.6877,0.2373,309.1738,90.5957,5.3037,47.64565012,-122.12144126,0.25999999,
3.3720,0.1133,-1.1087,-0.0651,0.1981,-0.4691,-1.0817,0.0648,-0.6877,0.2373,306.7798,90.4052,3.8025,47.64565012,-122.12144126,0.25999999,
3.4020,0.1133,-1.1087,-0.0651,1.9427,-1.3022,0.1249,0.0648,-0.6877,0.2373,306.7798,90.4052,3.8025,47.64565012,-122.12144126,0.25999999,
3.4060,0.1133,-1.1087,-0.0651,1.9427,-1.3022,0.1249,0.2391,-0.6444,0.2020,306.7798,90.4052,3.8025,47.64565012,-122.12144126,0.25999999,
3.4110,0.1133,-1.1087,-0.0651,1.9427,-1.3022,0.1249,0.2391,-0.6444,0.2020,305.7478,89.9423,4.0281,47.64565012,-122.12144126,0.25999999,
3.4210,-0.0163,-0.8767,-0.0112,1.9427,-1.3022,0.1249,0.2391,-0.6444,0.2020,305.7478,89.9423,4.0281,47.64565012,-122.12144126,0.25999999,
3.4430,-0.0163,-0.8767,-0.0112,-0.5265,-0.7747,0.9835,0.2391,-0.6444,0.2020,305.7478,89.9423,4.0281,47.64565012,-122.12144126,0.25999999,
3.4510,-0.0163,-0.8767,-0.0112,-0.5265,-0.7747,0.9835,0.2391,-0.6444,0.2020,305.6468,89.8333,4.3709,47.64565012,-122.12144126,0.25999999,
3.4720,-0.0163,-0.8767,-0.0112,-0.5265,-0.7747,0.9835,0.0521,-0.1593,-0.0827,305.6468,89.8333,4.3709,47.64565012,-122.12144126,0.25999999,
3.4810,-0.0163,-0.8767,-0.0112,-0.3110,0.2795,0.4665,0.0521,-0.1593,-0.0827,305.6468,89.8333,4.3709,47.64565012,-122.12144126,0.25999999,
3.4910,0.1066,-0.9690,-0.0640,-0.3110,0.2795,0.4665,0.0521,-0.1593,-0.0827,305.6468,89.8333,4.3709,47.64565012,-122.12144126,0.25999999,
3.4920,0.1066,-0.9690,-0.0640,-0.3110,0.2795,0.4665,0.0521,-0.1593,-0.0827,304.9795,89.8521,4.3432,47.64565012,-122.12144126,0.25999999,
3.5210,0.1066,-0.9690,-0.0640,0.0543,0.3707,0.3499,0.0521,-0.1593,-0.0827,304.9795,89.8521,4.3432,47.64565012,-122.12144126,0.25999999,
3.5320,0.1066,-0.9690,-0.0640,0.0543,0.3707,0.3499,0.0521,-0.1593,-0.0827,304.7623,89.8167,4.3932,47.64565012,-122.12144126,0.25999999,
3.5360,0.1066,-0.9690,-0.0640,0.0543,0.3707,0.3499,0.0240,-0.0989,-0.0183,304.7623,89.8167,4.3932,47.64565012,-122.12144126,0.25999999,
3.5520,0.1179,-1.0139,-0.0519,0.0543,0.3707,0.3499,0.0240,-0.0989,-0.0183,304.7623,89.8167,4.3932,47.64565012,-122.12144126,0.25999999,
3.5610,0.1179,-1.0139,-0.0519,0.8609,-1.1382,-0.7639,0.0240,-0.0989,-0.0183,304.7623,89.8167,4.3932,47.64565012,-122.12144126,0.25999999,
3.5710,0.1179,-1.0139,-0.0519,0.8609,-1.1382,-0.7639,0.0240,-0.0989,-0.0183,304.3933,89.7529,4.7783,47.64565012,-122.12144126,0.25999999,
3.6010,0.1179,-1.0139,-0.0519,0.2290,0.5671,1.0072,0.0240,-0.0989,-0.0183,304.3933,89.7529,4.7783,47.64565012,-122.12144126,0.25999999,
3.6020,0.1179,-1.0139,-0.0519,0.2290,0.5671,1.0072,0.0315,-0.1377,-0.0715,304.3933,89.7529,4.7783,47.64565012,-122.12144126,0.25999999,
3.6110,0.1179,-1.0139,-0.0519,0.2290,0.5671,1.0072,0.0315,-0.1377,-0.0715,304.2443,89.7108,4.6815,47.64565012,-122.12144126,0.25999999,
3.6200,0.0588,-0.9776,-0.0176,0.2290,0.5671,1.0072,0.0315,-0.1377,-0.0715,304.2443,89.7108,4.6815,47.64565012,-122.12144126,0.25999999,
3.6400,0.0588,-0.9776,-0.0176,-0.0487,0.7336,0.1294,0.0315,-0.1377,-0.0715,304.2443,89.7108,4.6815,47.64565012,-122.12144126,0.25999999,
3.6510,0.0588,-0.9776,-0.0176,-0.0487,0.7336,0.1294,0.0315,-0.1377,-0.0715,304.2203,89.6339,4.6530,47.64565012,-122.12144126,0.25999999,
3.6650,0.0588,-0.9776,-0.0176,-0.0487,0.7336,0.1294,0.0256,-0.0087,0.0122,304.2203,89.6339,4.6530,47.64565012,-122.12144126,0.25999999,
3.6800,0.0588,-0.9776,-0.0176,8.8335,-2.5669,0.2933,0.0256,-0.0087,0.0122,304.2203,89.6339,4.6530,47.64565012,-122.12144126,0.25999999,
3.6900,-0.1943,-0.9411,-0.0043,8.8335,-2.5669,0.2933,0.0256,-0.0087,0.0122,304.2203,89.6339,4.6530,47.64565012,-122.12144126,0.25999999,
3.6900,-0.1943,-0.9411,-0.0043,8.8335,-2.5669,0.2933,0.0256,-0.0087,0.0122,304.9962,89.6756,3.6465,47.64565012,-122.12144126,0.25999999,
3.7200,-0.1943,-0.9411,-0.0043,-3.8919,2.2910,2.1819,0.0256,-0.0087,0.0122,304.9962,89.6756,3.6465,47.64565012,-122.12144126,0.25999999,
3.7310,-0.1943,-0.9411,-0.0043,-3.8919,2.2910,2.1819,0.0256,-0.0087,0.0122,307.8781,90.1079,2.3498,47.64565012,-122.12144126,0.25999999,
3.7310,-0.1943,-0.9411,-0.0043,-3.8919,2.2910,2.1819,-0.1959,0.9356,0.6434,307.8781,90.1079,2.3498,47.64565012,-122.12144126,0.25999999,
3.7500,-0.0967,-1.0962,-0.1267,-3.8919,2.2910,2.1819,-0.1959,0.9356,0.6434,307.8781,90.1079,2.3498,47.64565012,-122.12144126,0.25999999,
3.7600,-0.0967,-1.0962,-0.1267,-1.7379,1.6893,1.2528,-0.1959,0.9356,0.6434,307.8781,90.1079,2.3498,47.64565012,-122.12144126,0.25999999,
3.7700,-0.0967,-1.0962,-0.1267,-1.7379,1.6893,1.2528,-0.1959,0.9356,0.6434,305.6812,91.4722,-0.5704,47.64565012,-122.12144126,0.25999999,
3.7950,-0.0967,-1.0962,-0.1267,-1.7379,1.6893,1.2528,-0.4643,-1.5898,0.4499,305.6812,91.4722,-0.5704,47.64565012,-122.12144126,0.25999999,
3.7990,-0.0967,-1.0962,-0.1267,-3.7229,-0.7587,0.5819,-0.4643,-1.5898,0.4499,305.6812,91.4722,-0.5704,47.64565012,-122.12144126,0.25999999,
3.8100,-0.0967,-1.0962,-0.1267,-3.7229,-0.7587,0.5819,-0.4643,-1.5898,0.4499,300.1877,92.0481,1.0843,47.64565012,-122.12144126,0.25999999,
3.8190,0.2998,-0.9988,-0.1346,-3.7229,-0.7587,0.5819,-0.4643,-1.5898,0.4499,300.1877,92.0481,1.0843,47.64565012,-122.12144126,0.25999999,
3.8400,0.2998,-0.9988,-0.1346,4.2382,3.9047,4.2528,-0.4643,-1.5898,0.4499,300.1877,92.0481,1.0843,47.64565012,-122.12144126,0.25999999,
3.8500,0.2998,-0.9988,-0.1346,4.2382,3.9047,4.2528,-0.4643,-1.5898,0.4499,291.4120,91.9156,5.6617,47.64565012,-122.12144126,0.25999999,
3.8600,0.2998,-0.9988,-0.1346,4.2382,3.9047,4.2528,0.2670,-3.7543,-1.9442,291.4120,91.9156,5.6617,47.64565012,-122.12144126,0.25999999,
3.8800,0.2998,-0.9988,-0.1346,-5.6398,-7.2965,1.0637,0.2670,-3.7543,-1.9442,291.4120,91.9156,5.6617,47.64565012,-122.12144126,0.25999999,
3.8900,0.2998,-0.9988,-0.1346,-5.6398,-7.2965,1.0637,0.2670,-3.7543,-1.9442,285.1787,91.8113,6.8171,47.64565012,-122.12144126,0.25999999,
3.8910,0.2599,-1.1180,-0.0355,-5.6398,-7.2965,1.0637,0.2670,-3.7543,-1.9442,285.1787,91.8113,6.8171,47.64565012,-122.12144126,0.25999999,
3.9200,0.2599,-1.1180,-0.0355,-0.5865,-2.3435,0.3274,0.2670,-3.7543,-1.9442,285.1787,91.8113,6.8171,47.64565012,-122.12144126,0.25999999,
3.9240,0.2599,-1.1180,-0.0355,-0.5865,-2.3435,0.3274,0.2928,-0.7259,0.0811,285.1787,91.8113,6.8171,47.64565012,-122.12144126,0.25999999,
3.9300,0.2599,-1.1180,-0.0355,-0.5865,-2.3435,0.3274,0.2928,-0.7259,0.0811,284.9255,91.1120,6.8535,47.64565012,-122.12144126,0.25999999,
3.9600,0.2599,-1.1180,-0.0355,-0.3220,-2.5210,-0.0535,0.2928,-0.7259,0.0811,284.9255,91.1120,6.8535,47.64565012,-122.12144126,0.25999999,
3.9610,0.1546,-0.6699,0.0935,-0.3220,-2.5210,-0.0535,0.2928,-0.7259,0.0811,284.9255,91.1120,6.8535,47.64565012,-122.12144126,0.25999999,
3.9700,0.1546,-0.6699,0.0935,-0.3220,-2.5210,-0.0535,0.2928,-0.7259,0.0811,285.9547,90.1632,6.7348,47.64565012,-122.12144126,0.25999999,
3.9900,0.1546,-0.6699,0.0935,-0.3220,-2.5210,-0.0535,0.2997,0.3221,0.1087,285.9547,90.1632,6.7348,47.64565012,-122.12144126,0.25999999,
3.9990,0.1546,-0.6699,0.0935,-2.9203,-14.3342,5.6192,0.2997,0.3221,0.1087,285.9547,90.1632,6.7348,47.64565012,-122.12144126,0.25999999,
4.0110,0.1546,-0.6699,0.0935,-2.9203,-14.3342,5.6192,0.2997,0.3221,0.1087,283.5105,89.5390,6.3719,47.64565012,-122.12144126,0.25999999,
4.0190,0.3401,-0.3482,-0.3914,-2.9203,-14.3342,5.6192,0.2997,0.3221,0.1087,283.5105,89.5390,6.3719,47.64565012,-122.12144126,0.25999999,
4.0400,0.3401,-0.3482,-0.3914,-2.7531,1.7970,-2.7649,0.2997,0.3221,0.1087,283.5105,89.5390,6.3719,47.64565012,-122.12144126,0.25999999,
4.0490,0.3401,-0.3482,-0.3914,-2.7531,1.7970,-2.7649,0.2997,0.3221,0.1087,274.6648,91.3840,7.4589,47.64565012,-122.12144126,0.25999999,
4.0590,0.3401,-0.3482,-0.3914,-2.7531,1.7970,-2.7649,-0.2650,-3.2141,-0.2989,274.6648,91.3840,7.4589,47.64565012,-122.12144126,0.25999999,
4.0820,0.3401,-0.3482,-0.3914,1.4548,-5.4471,-1.5278,-0.2650,-3.2141,-0.2989,274.6648,91.3840,7.4589,47.64565012,-122.12144126,0.25999999,
4.0890,0.2160,-0.8348,0.1419,1.4548,-5.4471,-1.5278,-0.2650,-3.2141,-0.2989,274.6648,91.3840,7.4589,47.64565012,-122.12144126,0.25999999,
4.0900,0.2160,-0.8348,0.1419,1.4548,-5.4471,-1.5278,-0.2650,-3.2141,-0.2989,275.5645,94.6603,9.4995,47.64565012,-122.12144126,0.25999999,
4.1200,0.2160,-0.8348,0.1419,-0.0530,25.1364,1.5127,-0.2650,-3.2141,-0.2989,275.5645,94.6603,9.4995,47.64565012,-122.12144126,0.25999999,
4.1210,0.2160,-0.8348,0.1419,-0.0530,25.1364,1.5127,-1.5877,0.3843,-0.4675,275.5645,94.6603,9.4995,47.64565012,-122.12144126,0.25999999,
4.1290,0.2160,-0.8348,0.1419,-0.0530,25.1364,1.5127,-1.5877,0.3843,-0.4675,274.9839,98.4821,9.5219,47.64565012,-122.12144126,0.25999999,
4.1600,0.2160,-0.8348,0.1419,-0.2825,1.4060,-6.3837,-1.5877,0.3843,-0.4675,274.9839,98.4821,9.5219,47.64565012,-122.12144126,0.25999999,
4.1610,-0.0273,-2.1377,-0.1221,-0.2825,1.4060,-6.3837,-1.5877,0.3843,-0.4675,274.9839,98.4821,9.5219,47.64565012,-122.12144126,0.25999999,
4.1700,-0.0273,-2.1377,-0.1221,-0.2825,1.4060,-6.3837,-1.5877,0.3843,-0.4675,272.8373,101.3023,8.9041,47.64565012,-122.12144126,0.25999999,
4.1830,-0.0273,-2.1377,-0.1221,-0.2825,1.4060,-6.3837,-0.6222,-0.4639,0.1606,272.8373,101.3023,8.9041,47.64565012,-122.12144126,0.25999999,
4.1990,-0.0273,-2.1377,-0.1221,-2.5807,0.8918,2.7218,-0.6222,-0.4639,0.1606,272.8373,101.3023,8.9041,47.64565012,-122.12144126,0.25999999,
4.2080,-0.0273,-2.1377,-0.1221,-2.5807,0.8918,2.7218,-0.6222,-0.4639,0.1606,274.6532,99.6770,8.9417,47.64565012,-122.12144126,0.25999999,
4.2190,0.3587,-1.0540,-0.1224,-2.5807,0.8918,2.7218,-0.6222,-0.4639,0.1606,274.6532,99.6770,8.9417,47.64565012,-122.12144126,0.25999999,
4.2390,0.3587,-1.0540,-0.1224,2.8913,-3.0081,0.4191,-0.6222,-0.4639,0.1606,274.6532,99.6770,8.9417,47.64565012,-122.12144126,0.25999999,
4.2480,0.3587,-1.0540,-0.1224,2.8913,-3.0081,0.4191,0.2969,0.9451,-0.2495,274.6532,99.6770,8.9417,47.64565012,-122.12144126,0.25999999,
4.2480,0.3587,-1.0540,-0.1224,2.8913,-3.0081,0.4191,0.2969,0.9451,-0.2495,277.0310,98.9618,10.0066,47.64565012,-122.12144126,0.25999999,
4.2790,0.3587,-1.0540,-0.1224,0.4573,-0.7084,0.4713,0.2969,0.9451,-0.2495,277.0310,98.9618,10.0066,47.64565012,-122.12144126,0.25999999,
4.2880,0.3587,-1.0540,-0.1224,0.4573,-0.7084,0.4713,0.2969,0.9451,-0.2495,278.7948,98.1664,10.4535,47.64565012,-122.12144126,0.25999999,
4.2890,0.0026,-0.8170,-0.1455,0.4573,-0.7084,0.4713,0.2969,0.9451,-0.2495,278.7948,98.1664,10.4535,47.64565012,-122.12144126,0.25999999,
4.3130,0.0026,-0.8170,-0.1455,0.4573,-0.7084,0.4713,0.1271,0.5706,-0.0210,278.7948,98.1664,10.4535,47.64565012,-122.12144126,0.25999999,
4.3180,0.0026,-0.8170,-0.1455,0.2398,-0.2466,-0.1731,0.1271,0.5706,-0.0210,278.7948,98.1664,10.4535,47.64565012,-122.12144126,0.25999999,
4.3280,0.0026,-0.8170,-0.1455,0.2398,-0.2466,-0.1731,0.1271,0.5706,-0.0210,279.3160,98.0941,10.5375,47.64565012,-122.12144126,0.25999999,
4.3600,0.1583,-0.9587,-0.1763,0.2398,-0.2466,-0.1731,0.1271,0.5706,-0.0210,279.3160,98.0941,10.5375,47.64565012,-122.12144126,0.25999999,
4.3610,0.1583,-0.9587,-0.1763,0.5532,0.2256,-0.8232,0.1271,0.5706,-0.0210,279.3160,98.0941,10.5375,47.64565012,-122.12144126,0.25999999,
4.3680,0.1583,-0.9587,-0.1763,0.5532,0.2256,-0.8232,0.1271,0.5706,-0.0210,278.9963,98.1272,10.6925,47.64565012,-122.12144126,0.25999999,
4.3780,0.1583,-0.9587,-0.1763,0.5532,0.2256,-0.8232,0.0488,-0.1673,-0.0779,278.9963,98.1272,10.6925,47.64565012,-122.12144126,0.25999999,
4.3980,0.1583,-0.9587,-0.1763,-0.0133,-0.2265,0.8194,0.0488,-0.1673,-0.0779,278.9963,98.1272,10.6925,47.64565012,-122.12144126,0.25999999,
4.4070,0.1583,-0.9587,-0.1763,-0.0133,-0.2265,0.8194,0.0488,-0.1673,-0.0779,278.5569,97.5867,10.6167,47.64565012,-122.12144126,0.25999999,
4.4180,0.1721,-0.9887,-0.1132,-0.0133,-0.2265,0.8194,0.0488,-0.1673,-0.0779,278.5569,97.5867,10.6167,47.64565012,-122.12144126,0.25999999,
4.4380,0.1721,-0.9887,-0.1132,-0.7162,-0.2452,0.1749,0.0488,-0.1673,-0.0779,278.5569,97.5867,10.6167,47.64565012,-122.12144126,0.25999999,
4.4440,0.1721,-0.9887,-0.1132,-0.7162,-0.2452,0.1749,0.3013,-0.0243,0.1218,278.5569,97.5867,10.6167,47.64565012,-122.12144126,0.25999999,
4.4480,0.1721,-0.9887,-0.1132,-0.7162,-0.2452,0.1749,0.3013,-0.0243,0.1218,278.6246,96.9352,10.2694,47.64565012,-122.12144126,0.25999999,
4.4780,0.1721,-0.9887,-0.1132,-1.0144,0.1852,0.6668,0.3013,-0.0243,0.1218,278.6246,96.9352,10.2694,47.64565012,-122.12144126,0.25999999,
4.4870,0.2655,-0.9877,-0.1539,-1.0144,0.1852,0.6668,0.3013,-0.0243,0.1218,278.6246,96.9352,10.2694,47.64565012,-122.12144126,0.25999999,
4.4880,0.2655,-0.9877,-0.1539,-1.0144,0.1852,0.6668,0.3013,-0.0243,0.1218,278.4284,96.3361,9.9206,47.64565012,-122.12144126,0.25999999,
4.5070,0.2655,-0.9877,-0.1539,-1.0144,0.1852,0.6668,0.2595,-0.1901,0.1274,278.4284,96.3361,9.9206,47.64565012,-122.12144126,0.25999999,
4.5180,0.2655,-0.9877,-0.1539,-0.4189,-0.2992,0.8895,0.2595,-0.1901,0.1274,278.4284,96.3361,9.9206,47.64565012,-122.12144126,0.25999999,
4.5270,0.2655,-0.9877,-0.1539,-0.4189,-0.2992,0.8895,0.2595,-0.1901,0.1274,277.9841,95.9349,9.7125,47.64565012,-122.12144126,0.25999999,
4.5580,0.2655,-0.9877,-0.1539,0.2100,-0.2064,0.3666,0.2595,-0.1901,0.1274,277.9841,95.9349,9.7125,47.64565012,-122.12144126,0.25999999,
4.5600,0.2129,-0.9644,-0.1655,0.2100,-0.2064,0.3666,0.2595,-0.1901,0.1274,277.9841,95.9349,9.7125,47.64565012,-122.12144126,0.25999999,
4.5670,0.2129,-0.9644,-0.1655,0.2100,-0.2064,0.3666,0.2595,-0.1901,0.1274,278.0206,95.7265,9.6434,47.64565012,-122.12144126,0.25999999,
4.5720,0.2129,-0.9644,-0.1655,0.2100,-0.2064,0.3666,0.1125,0.0132,0.0393,278.0206,95.7265,9.6434,47.64565012,-122.12144126,0.25999999,
4.5970,0.2129,-0.9644,-0.1655,0.0398,0.0825,0.1070,0.1125,0.0132,0.0393,278.0206,95.7265,9.6434,47.64565012,-122.12144126,0.25999999,
4.6060,0.2129,-0.9644,-0.1655,0.0398,0.0825,0.1070,0.1125,0.0132,0.0393,278.0372,95.6617,9.5524,47.64565012,-122.12144126,0.25999999,
4.6270,0.1548,-0.9848,-0.1199,0.0398,0.0825,0.1070,0.1125,0.0132,0.0393,278.0372,95.6617,9.5524,47.64565012,-122.12144126,0.25999999,
4.6370,0.1548,-0.9848,-0.1199,0.2455,0.0312,0.1604,0.1125,0.0132,0.0393,278.0372,95.6617,9.5524,47.64565012,-122.12144126,0.25999999,
4.6370,0.1548,-0.9848,-0.1199,0.2455,0.0312,0.1604,0.0299,-0.0042,0.0355,278.0372,95.6617,9.5524,47.64565012,-122.12144126,0.25999999,
4.6460,0.1548,-0.9848,-0.1199,0.2455,0.0312,0.1604,0.0299,-0.0042,0.0355,278.0023,95.6109,9.4802,47.64565012,-122.12144126,0.25999999,
4.6770,0.1548,-0.9848,-0.1199,0.5559,-0.1765,0.1409,0.0299,-0.0042,0.0355,278.0023,95.6109,9.4802,47.64565012,-122.12144126,0.25999999,
4.6860,0.1232,-0.9783,-0.1137,0.5559,-0.1765,0.1409,0.0299,-0.0042,0.0355,278.0023,95.6109,9.4802,47.64565012,-122.12144126,0.25999999,
4.6870,0.1232,-0.9783,-0.1137,0.5559,-0.1765,0.1409,0.0299,-0.0042,0.0355,277.8244,95.6712,9.3863,47.64565012,-122.12144126,0.25999999,
4.7010,0.1232,-0.9783,-0.1137,0.5559,-0.1765,0.1409,-0.0178,-0.0796,0.0285,277.8244,95.6712,9.3863,47.64565012,-122.12144126,0.25999999,
4.7180,0.1232,-0.9783,-0.1137,0.4122,0.0905,-0.0360,-0.0178,-0.0796,0.0285,277.8244,95.6712,9.3863,47.64565012,-122.12144126,0.25999999,
4.7280,0.1232,-0.9783,-0.1137,0.4122,0.0905,-0.0360,-0.0178,-0.0796,0.0285,277.5842,95.8011,9.2659,47.64565012,-122.12144126,0.25999999,
4.7570,0.1232,-0.9783,-0.1137,-0.2732,0.2945,-0.1840,-0.0178,-0.0796,0.0285,277.5842,95.8011,9.2659,47.64565012,-122.12144126,0.25999999,
4.7580,0.1346,-0.9957,-0.0953,-0.2732,0.2945,-0.1840,-0.0178,-0.0796,0.0285,277.5842,95.8011,9.2659,47.64565012,-122.12144126,0.25999999,
4.7660,0.1346,-0.9957,-0.0953,-0.2732,0.2945,-0.1840,-0.0161,-0.1238,0.0360,277.5842,95.8011,9.2659,47.64565012,-122.12144126,0.25999999,
4.7670,0.1346,-0.9957,-0.0953,-0.2732,0.2945,-0.1840,-0.0161,-0.1238,0.0360,277.3172,95.8574,9.1522,47.64565012,-122.12144126,0.25999999,
4.7970,0.1346,-0.9957,-0.0953,-0.1085,0.0453,0.1358,-0.0161,-0.1238,0.0360,277.3172,95.8574,9.1522,47.64565012,-122.12144126,0.25999999,
4.8060,0.1346,-0.9957,-0.0953,-0.1085,0.0453,0.1358,-0.0161,-0.1238,0.0360,276.9501,95.8738,9.1586,47.64565012,-122.12144126,0.25999999,
4.8260,0.1794,-0.9925,-0.1066,-0.1085,0.0453,0.1358,-0.0161,-0.1238,0.0360,276.9501,95.8738,9.1586,47.64565012,-122.12144126,0.25999999,
4.8310,0.1794,-0.9925,-0.1066,-0.1085,0.0453,0.1358,0.0275,-0.1419,-0.0033,276.9501,95.8738,9.1586,47.64565012,-122.12144126,0.25999999,
4.8360,0.1794,-0.9925,-0.1066,0.0646,0.0867,0.2669,0.0275,-0.1419,-0.0033,276.9501,95.8738,9.1586,47.64565012,-122.12144126,0.25999999,
4.8460,0.1794,-0.9925,-0.1066,0.0646,0.0867,0.2669,0.0275,-0.1419,-0.0033,276.7184,95.8327,9.0718,47.64565012,-122.12144126,0.25999999,
4.8760,0.1794,-0.9925,-0.1066,-0.3299,-0.0385,0.2496,0.0275,-0.1419,-0.0033,276.7184,95.8327,9.0718,47.64565012,-122.12144126,0.25999999,
4.8850,0.1794,-0.9925,-0.1066,-0.3299,-0.0385,0.2496,0.0275,-0.1419,-0.0033,276.6155,95.7647,8.9161,47.64565012,-122.12144126,0.25999999,
4.8860,0.1690,-0.9829,-0.1277,-0.3299,-0.0385,0.2496,0.0275,-0.1419,-0.0033,276.6155,95.7647,8.9161,47.64565012,-122.12144126,0.25999999,
4.8960,0.1690,-0.9829,-0.1277,-0.3299,-0.0385,0.2496,0.0377,-0.0499,0.0598,276.6155,95.7647,8.9161,47.64565012,-122.12144126,0.25999999,
4.9160,0.1690,-0.9829,-0.1277,-0.1535,-0.0270,0.3550,0.0377,-0.0499,0.0598,276.6155,95.7647,8.9161,47.64565012,-122.12144126,0.25999999,
4.9250,0.1690,-0.9829,-0.1277,-0.1535,-0.0270,0.3550,0.0377,-0.0499,0.0598,276.5708,95.7386,8.8567,47.64565012,-122.12144126,0.25999999,
4.9560,0.1690,-0.9829,-0.1277,0.1752,0.0870,-0.0503,0.0377,-0.0499,0.0598,276.5708,95.7386,8.8567,47.64565012,-122.12144126,0.25999999,
4.9570,0.1686,-0.9837,-0.1197,0.1752,0.0870,-0.0503,0.0377,-0.0499,0.0598,276.5708,95.7386,8.8567,47.64565012,-122.12144126,0.25999999,
4.9600,0.1686,-0.9837,-0.1197,0.1752,0.0870,-0.0503,0.0126,-0.0302,0.0136,276.5708,95.7386,8.8567,47.64565012,-122.12144126,0.25999999,
4.9650,0.1686,-0.9837,-0.1197,0.1752,0.0870,-0.0503,0.0126,-0.0302,0.0136,276.4749,95.7279,8.8207,47.64565012,-122.12144126,0.25999999,
4.9950,0.1686,-0.9837,-0.1197,0.1946,0.0939,-0.0171,0.0126,-0.0302,0.0136,276.4749,95.7279,8.8207,47.64565012,-122.12144126,0.25999999,
5.0040,0.1686,-0.9837,-0.1197,0.1946,0.0939,-0.0171,0.0126,-0.0302,0.0136,276.4071,95.6879,8.7256,47.64565012,-122.12144126,0.25999999,
5.0250,0.1294,-0.9939,-0.0948,0.1946,0.0939,-0.0171,0.0126,-0.0302,0.0136,276.4071,95.6879,8.7256,47.64565012,-122.12144126,0.25999999,
5.0260,0.1294,-0.9939,-0.0948,0.1946,0.0939,-0.0171,0.0226,-0.0319,0.0348,276.4071,95.6879,8.7256,47.64565012,-122.12144126,0.25999999,
5.0340,0.1294,-0.9939,-0.0948,0.1595,0.1768,-0.0893,0.0226,-0.0319,0.0348,276.4071,95.6879,8.7256,47.64565012,-122.12144126,0.25999999,
5.0440,0.1294,-0.9939,-0.0948,0.1595,0.1768,-0.0893,0.0226,-0.0319,0.0348,276.3205,95.6397,8.6381,47.64565012,-122.12144126,0.25999999,
5.0750,0.1294,-0.9939,-0.0948,0.0496,0.0400,0.1148,0.0226,-0.0319,0.0348,276.3205,95.6397,8.6381,47.64565012,-122.12144126,0.25999999,
5.0840,0.1294,-0.9939,-0.0948,0.0496,0.0400,0.1148,0.0226,-0.0319,0.0348,276.1934,95.6147,8.5784,47.64565012,-122.12144126,0.25999999,
5.0850,0.1314,-0.9909,-0.1019,0.0496,0.0400,0.1148,0.0226,-0.0319,0.0348,276.1934,95.6147,8.5784,47.64565012,-122.12144126,0.25999999,
5.0890,0.1314,-0.9909,-0.1019,0.0496,0.0400,0.1148,0.0240,-0.0660,0.0158,276.1934,95.6147,8.5784,47.64565012,-122.12144126,0.25999999,
5.1150,0.1314,-0.9909,-0.1019,0.1964,0.1497,-0.0671,0.0240,-0.0660,0.0158,276.1934,95.6147,8.5784,47.64565012,-122.12144126,0.25999999,
5.1230,0.1314,-0.9909,-0.1019,0.1964,0.1497,-0.0671,0.0240,-0.0660,0.0158,275.9716,95.6029,8.5761,47.64565012,-122.12144126,0.25999999,
5.1550,0.1314,-0.9909,-0.1019,-0.0750,0.0484,0.0615,0.0240,-0.0660,0.0158,275.9716,95.6029,8.5761,47.64565012,-122.12144126,0.25999999,
5.1560,0.1314,-0.9909,-0.1019,-0.0750,0.0484,0.0615,0.0117,-0.0663,-0.0004,275.9716,95.6029,8.5761,47.64565012,-122.12144126,0.25999999,
5.1570,0.1414,-0.9918,-0.1004,-0.0750,0.0484,0.0615,0.0117,-0.0663,-0.0004,275.9716,95.6029,8.5761,47.64565012,-122.12144126,0.25999999,
5.1640,0.1414,-0.9918,-0.1004,-0.0750,0.0484,0.0615,0.0117,-0.0663,-0.0004,275.8716,95.6047,8.5459,47.64565012,-122.12144126,0.25999999,
5.1950,0.1414,-0.9918,-0.1004,0.1605,-0.0139,-0.0137,0.0117,-0.0663,-0.0004,275.8716,95.6047,8.5459,47.64565012,-122.12144126,0.25999999,
5.2030,0.1414,-0.9918,-0.1004,0.1605,-0.0139,-0.0137,0.0117,-0.0663,-0.0004,275.8002,95.6330,8.5344,47.64565012,-122.12144126,0.25999999,
5.2190,0.1414,-0.9918,-0.1004,0.1605,-0.0139,-0.0137,-0.0064,-0.0283,-0.0002,275.8002,95.6330,8.5344,47.64565012,-122.12144126,0.25999999,
5.2240,0.1414,-0.9872,-0.0965,0.1605,-0.0139,-0.0137,-0.0064,-0.0283,-0.0002,275.8002,95.6330,8.5344,47.64565012,-122.12144126,0.25999999,
5.2340,0.1414,-0.9872,-0.0965,0.0982,0.1157,-0.0217,-0.0064,-0.0283,-0.0002,275.8002,95.6330,8.5344,47.64565012,-122.12144126,0.25999999,
5.2430,0.1414,-0.9872,-0.0965,0.0982,0.1157,-0.0217,-0.0064,-0.0283,-0.0002,275.7289,95.6560,8.5329,47.64565012,-122.12144126,0.25999999,
5.2740,0.1414,-0.9872,-0.0965,0.2026,0.0206,-0.0013,-0.0064,-0.0283,-0.0002,275.7289,95.6560,8.5329,47.64565012,-122.12144126,0.25999999,
5.2830,0.1414,-0.9872,-0.0965,0.2026,0.0206,-0.0013,-0.0064,-0.0283,-0.0002,275.5799,95.7121,8.5325,47.64565012,-122.12144126,0.25999999,
5.2840,0.1414,-0.9872,-0.0965,0.2026,0.0206,-0.0013,-0.0126,-0.0569,-0.0083,275.5799,95.7121,8.5325,47.64565012,-122.12144126,0.25999999,
5.2940,0.1325,-0.9928,-0.0990,0.2026,0.0206,-0.0013,-0.0126,-0.0569,-0.0083,275.5799,95.7121,8.5325,47.64565012,-122.12144126,0.25999999,
5.3140,0.1325,-0.9928,-0.0990,0.0050,0.0460,0.0543,-0.0126,-0.0569,-0.0083,275.5799,95.7121,8.5325,47.64565012,-122.12144126,0.25999999,
5.3230,0.1325,-0.9928,-0.0990,0.0050,0.0460,0.0543,-0.0126,-0.0569,-0.0083,275.4180,95.7734,8.5542,47.64565012,-122.12144126,0.25999999,
5.3480,0.1325,-0.9928,-0.0990,0.0050,0.0460,0.0543,-0.0110,-0.0750,-0.0187,275.4180,95.7734,8.5542,47.64565012,-122.12144126,0.25999999,
5.3540,0.1485,-0.9890,-0.1056,0.0050,0.0460,0.0543,-0.0110,-0.0750,-0.0187,275.4180,95.7734,8.5542,47.64565012,-122.12144126,0.25999999,
5.3550,0.1485,-0.9890,-0.1056,-0.0666,0.0667,0.0556,-0.0110,-0.0750,-0.0187,275.4180,95.7734,8.5542,47.64565012,-122.12144126,0.25999999,
5.3630,0.1485,-0.9890,-0.1056,-0.0666,0.0667,0.0556,-0.0110,-0.0750,-0.0187,275.2311,95.8146,8.5779,47.64565012,-122.12144126,0.25999999,
5.3930,0.1485,-0.9890,-0.1056,-0.0813,-0.0284,0.3419,-0.0110,-0.0750,-0.0187,275.2311,95.8146,8.5779,47.64565012,-122.12144126,0.25999999,
5.4030,0.1485,-0.9890,-0.1056,-0.0813,-0.0284,0.3419,-0.0110,-0.0750,-0.0187,275.0770,95.8718,8.5718,47.64565012,-122.12144126,0.25999999,
5.4130,0.1485,-0.9890,-0.1056,-0.0813,-0.0284,0.3419,-0.0128,-0.0629,-0.0038,275.0770,95.8718,8.5718,47.64565012,-122.12144126,0.25999999,
5.4250,0.1598,-0.9842,-0.1269,-0.0813,-0.0284,0.3419,-0.0128,-0.0629,-0.0038,275.0770,95.8718,8.5718,47.64565012,-122.12144126,0.25999999,
5.4330,0.1598,-0.9842,-0.1269,-0.1710,-0.0411,0.2327,-0.0128,-0.0629,-0.0038,275.0770,95.8718,8.5718,47.64565012,-122.12144126,0.25999999,
5.4440,0.1598,-0.9842,-0.1269,-0.1710,-0.0411,0.2327,-0.0128,-0.0629,-0.0038,274.9880,95.9581,8.5873,47.64565012,-122.12144126,0.25999999,
5.4740,0.1598,-0.9842,-0.1269,0.0537,0.0950,0.0977,-0.0128,-0.0629,-0.0038,274.9880,95.9581,8.5873,47.64565012,-122.12144126,0.25999999,
5.4770,0.1598,-0.9842,-0.1269,0.0537,0.0950,0.0977,-0.0260,-0.0268,-0.0127,274.9880,95.9581,8.5873,47.64565012,-122.12144126,0.25999999,
5.4820,0.1598,-0.9842,-0.1269,0.0537,0.0950,0.0977,-0.0260,-0.0268,-0.0127,274.9273,96.0267,8.6114,47.64565012,-122.12144126,0.25999999,
5.4930,0.1558,-0.9891,-0.1188,0.0537,0.0950,0.0977,-0.0260,-0.0268,-0.0127,274.9273,96.0267,8.6114,47.64565012,-122.12144126,0.25999999,
5.5130,0.1558,-0.9891,-0.1188,-0.0567,-0.0042,0.1366,-0.0260,-0.0268,-0.0127,274.9273,96.0267,8.6114,47.64565012,-122.12144126,0.25999999,
5.5220,0.1558,-0.9891,-0.1188,-0.0567,-0.0042,0.1366,-0.0260,-0.0268,-0.0127,274.8826,96.1129,8.6087,47.64565012,-122.12144126,0.25999999,
5.5420,0.1558,-0.9891,-0.1188,-0.0567,-0.0042,0.1366,-0.0339,-0.0215,-0.0051,274.8826,96.1129,8.6087,47.64565012,-122.12144126,0.25999999,
5.5530,0.1558,-0.9891,-0.1188,-0.0010,0.0890,0.1059,-0.0339,-0.0215,-0.0051,274.8826,96.1129,8.6087,47.64565012,-122.12144126,0.25999999,
5.5540,0.1498,-0.9869,-0.1205,-0.0010,0.0890,0.1059,-0.0339,-0.0215,-0.0051,274.8826,96.1129,8.6087,47.64565012,-122.12144126,0.25999999,
5.5620,0.1498,-0.9869,-0.1205,-0.0010,0.0890,0.1059,-0.0339,-0.0215,-0.0051,274.8150,96.2087,8.6319,47.64565012,-122.12144126,0.25999999,
5.5940,0.1498,-0.9869,-0.1205,-0.0163,0.0384,0.0730,-0.0339,-0.0215,-0.0051,274.8150,96.2087,8.6319,47.64565012,-122.12144126,0.25999999,
5.6020,0.1498,-0.9869,-0.1205,-0.0163,0.0384,0.0730,-0.0339,-0.0215,-0.0051,274.7461,96.2852,8.6499,47.64565012,-122.12144126,0.25999999,
5.6060,0.1498,-0.9869,-0.1205,-0.0163,0.0384,0.0730,-0.0272,-0.0275,-0.0102,274.7461,96.2852,8.6499,47.64565012,-122.12144126,0.25999999,
5.6220,0.1538,-0.9915,-0.1177,-0.0163,0.0384,0.0730,-0.0272,-0.0275,-0.0102,274.7461,96.2852,8.6499,47.64565012,-122.12144126,0.25999999,
5.6320,0.1538,-0.9915,-0.1177,-0.0603,0.0965,0.1709,-0.0272,-0.0275,-0.0102,274.7461,96.2852,8.6499,47.64565012,-122.12144126,0.25999999,
5.6420,0.1538,-0.9915,-0.1177,-0.0603,0.0965,0.1709,-0.0272,-0.0275,-0.0102,274.7446,96.3111,8.6368,47.64565012,-122.12144126,0.25999999,
5.6720,0.1538,-0.9915,-0.1177,-0.1545,-0.0333,0.1319,-0.0272,-0.0275,-0.0102,274.7446,96.3111,8.6368,47.64565012,-122.12144126,0.25999999,
5.6740,0.1538,-0.9915,-0.1177,-0.1545,-0.0333,0.1319,-0.0042,0.0114,0.0110,274.7446,96.3111,8.6368,47.64565012,-122.12144126,0.25999999,
5.6810,0.1538,-0.9915,-0.1177,-0.1545,-0.0333,0.1319,-0.0042,0.0114,0.0110,274.7848,96.3141,8.6183,47.64565012,-122.12144126,0.25999999,
5.6910,0.1621,-0.9863,-0.1264,-0.1545,-0.0333,0.1319,-0.0042,0.0114,0.0110,274.7848,96.3141,8.6183,47.64565012,-122.12144126,0.25999999,
5.7120,0.1621,-0.9863,-0.1264,-0.1602,0.0336,0.2407,-0.0042,0.0114,0.0110,274.7848,96.3141,8.6183,47.64565012,-122.12144126,0.25999999,
5.7210,0.1621,-0.9863,-0.1264,-0.1602,0.0336,0.2407,-0.0042,0.0114,0.0110,274.8394,96.3140,8.6139,47.64565012,-122.12144126,0.25999999,
5.7370,0.1621,-0.9863,-0.1264,-0.1602,0.0336,0.2407,-0.0022,0.0229,0.0081,274.8394,96.3140,8.6139,47.64565012,-122.12144126,0.25999999,
5.7520,0.1621,-0.9863,-0.1264,-0.0441,-0.0146,0.1066,-0.0022,0.0229,0.0081,274.8394,96.3140,8.6139,47.64565012,-122.12144126,0.25999999,
5.7530,0.1587,-0.9860,-0.1280,-0.0441,-0.0146,0.1066,-0.0022,0.0229,0.0081,274.8394,96.3140,8.6139,47.64565012,-122.12144126,0.25999999,
5.7610,0.1587,-0.9860,-0.1280,-0.0441,-0.0146,0.1066,-0.0022,0.0229,0.0081,274.9109,96.3275,8.5882,47.64565012,-122.12144126,0.25999999,
5.7910,0.1587,-0.9860,-0.1280,-0.1044,-0.0099,0.2118,-0.0022,0.0229,0.0081,274.9109,96.3275,8.5882,47.64565012,-122.12144126,0.25999999,
5.8010,0.1587,-0.9860,-0.1280,-0.1044,-0.0099,0.2118,-0.0128,0.0366,0.0121,274.9109,96.3275,8.5882,47.64565012,-122.12144126,0.25999999,
5.8020,0.1587,-0.9860,-0.1280,-0.1044,-0.0099,0.2118,-0.0128,0.0366,0.0121,274.9955,96.3531,8.5795,47.64565012,-122.12144126,0.25999999,
5.8210,0.1579,-0.9841,-0.1265,-0.1044,-0.0099,0.2118,-0.0128,0.0366,0.0121,274.9955,96.3531,8.5795,47.64565012,-122.12144126,0.25999999,
5.8310,0.1579,-0.9841,-0.1265,0.0438,0.0912,0.0183,-0.0128,0.0366,0.0121,274.9955,96.3531,8.5795,47.64565012,-122.12144126,0.25999999,
5.8410,0.1579,-0.9841,-0.1265,0.0438,0.0912,0.0183,-0.0128,0.0366,0.0121,275.0805,96.3747,8.5765,47.64565012,-122.12144126,0.25999999,
5.8660,0.1579,-0.9841,-0.1265,0.0438,0.0912,0.0183,-0.0092,0.0369,0.0092,275.0805,96.3747,8.5765,47.64565012,-122.12144126,0.25999999,
5.8710,0.1579,-0.9841,-0.1265,0.0212,0.0716,0.0648,-0.0092,0.0369,0.0092,275.0805,96.3747,8.5765,47.64565012,-122.12144126,0.25999999,
5.8800,0.1579,-0.9841,-0.1265,0.0212,0.0716,0.0648,-0.0092,0.0369,0.0092,275.1656,96.3727,8.5529,47.64565012,-122.12144126,0.25999999,
5.8910,0.1450,-0.9918,-0.1168,0.0212,0.0716,0.0648,-0.0092,0.0369,0.0092,275.1656,96.3727,8.5529,47.64565012,-122.12144126,0.25999999,
5.9110,0.1450,-0.9918,-0.1168,0.1409,0.0039,0.1830,-0.0092,0.0369,0.0092,275.1656,96.3727,8.5529,47.64565012,-122.12144126,0.25999999,
5.9200,0.1450,-0.9918,-0.1168,0.1409,0.0039,0.1830,-0.0092,0.0369,0.0092,275.2575,96.3784,8.5272,47.64565012,-122.12144126,0.25999999,
5.9310,0.1450,-0.9918,-0.1168,0.1409,0.0039,0.1830,-0.0061,0.0391,0.0131,275.2575,96.3784,8.5272,47.64565012,-122.12144126,0.25999999,
5.9510,0.1450,-0.9918,-0.1168,0.1338,0.1044,0.0292,-0.0061,0.0391,0.0131,275.2575,96.3784,8.5272,47.64565012,-122.12144126,0.25999999,
5.9600,0.1397,-0.9860,-0.1213,0.1338,0.1044,0.0292,-0.0061,0.0391,0.0131,275.2575,96.3784,8.5272,47.64565012,-122.12144126,0.25999999,
5.9610,0.1397,-0.9860,-0.1213,0.1338,0.1044,0.0292,-0.0061,0.0391,0.0131,275.3351,96.3931,8.5178,47.64565012,-122.12144126,0.25999999,
5.9910,0.1397,-0.9860,-0.1213,0.1837,0.0994,-0.0574,-0.0061,0.0391,0.0131,275.3351,96.3931,8.5178,47.64565012,-122.12144126,0.25999999,
5.9950,0.1397,-0.9860,-0.1213,0.1837,0.0994,-0.0574,-0.0089,0.0217,0.0069,275.3351,96.3931,8.5178,47.64565012,-122.12144126,0.25999999,
6.0000,0.1397,-0.9860,-0.1213,0.1837,0.0994,-0.0574,-0.0089,0.0217,0.0069,275.3822,96.4016,8.4953,47.64565012,-122.12144126,0.25999999,
6.0200,0.1335,-0.9919,-0.1094,0.1837,0.0994,-0.0574,-0.0089,0.0217,0.0069,275.3822,96.4016,8.4953,47.64565012,-122.12144126,0.25999999,
6.0320,0.1335,-0.9919,-0.1094,0.1208,0.0318,0.1953,-0.0089,0.0217,0.0069,275.3822,96.4016,8.4953,47.64565012,-122.12144126,0.25999999,
6.0400,0.1335,-0.9919,-0.1094,0.1208,0.0318,0.1953,-0.0089,0.0217,0.0069,275.4034,96.4232,8.4641,47.64565012,-122.12144126,0.25999999,
6.0600,0.1335,-0.9919,-0.1094,0.1208,0.0318,0.1953,-0.0093,-0.0080,0.0103,275.4034,96.4232,8.4641,47.64565012,-122.12144126,0.25999999,
6.0700,0.1335,-0.9919,-0.1094,0.0106,0.0558,-0.0328,-0.0093,-0.0080,0.0103,275.4034,96.4232,8.4641,47.64565012,-122.12144126,0.25999999,
6.0800,0.1335,-0.9919,-0.1094,0.0106,0.0558,-0.0328,-0.0093,-0.0080,0.0103,275.3347,96.4501,8.4415,47.64565012,-122.12144126,0.25999999,
6.0900,0.1413,-0.9887,-0.1185,0.0106,0.0558,-0.0328,-0.0093,-0.0080,0.0103,275.3347,96.4501,8.4415,47.64565012,-122.12144126,0.25999999,
6.1100,0.1413,-0.9887,-0.1185,0.1090,0.0703,-0.0219,-0.0093,-0.0080,0.0103,275.3347,96.4501,8.4415,47.64565012,-122.12144126,0.25999999,
6.1200,0.1413,-0.9887,-0.1185,0.1090,0.0703,-0.0219,-0.0093,-0.0080,0.0103,275.2532,96.4733,8.4317,47.64565012,-122.12144126,0.25999999,
6.1240,0.1413,-0.9887,-0.1185,0.1090,0.0703,-0.0219,-0.0055,-0.0318,0.0013,275.2532,96.4733,8.4317,47.64565012,-122.12144126,0.25999999,
6.1500,0.1413,-0.9887,-0.1185,0.0156,-0.0776,0.1681,-0.0055,-0.0318,0.0013,275.2532,96.4733,8.4317,47.64565012,-122.12144126,0.25999999,
6.1600,0.1424,-0.9847,-0.1218,0.0156,-0.0776,0.1681,-0.0055,-0.0318,0.0013,275.2532,96.4733,8.4317,47.64565012,-122.12144126,0.25999999,
6.1610,0.1424,-0.9847,-0.1218,0.0156,-0.0776,0.1681,-0.0055,-0.0318,0.0013,275.1858,96.5402,8.4168,47.64565012,-122.12144126,0.25999999,
6.1890,0.1424,-0.9847,-0.1218,-0.0720,0.0770,0.0221,-0.0055,-0.0318,0.0013,275.1858,96.5402,8.4168,47.64565012,-122.12144126,0.25999999,
6.1900,0.1424,-0.9847,-0.1218,-0.0720,0.0770,0.0221,-0.0279,-0.0279,0.0023,275.1858,96.5402,8.4168,47.64565012,-122.12144126,0.25999999,
6.2000,0.1424,-0.9847,-0.1218,-0.0720,0.0770,0.0221,-0.0279,-0.0279,0.0023,275.1275,96.6176,8.4071,47.64565012,-122.12144126,0.25999999,
6.2200,0.1504,-0.9901,-0.1187,-0.0720,0.0770,0.0221,-0.0279,-0.0279,0.0023,275.1275,96.6176,8.4071,47.64565012,-122.12144126,0.25999999,
6.2290,0.1504,-0.9901,-0.1187,0.0840,0.0733,0.0489,-0.0279,-0.0279,0.0023,275.1275,96.6176,8.4071,47.64565012,-122.12144126,0.25999999,
6.2400,0.1504,-0.9901,-0.1187,0.0840,0.0733,0.0489,-0.0279,-0.0279,0.0023,275.0634,96.6814,8.3995,47.64565012,-122.12144126,0.25999999,
6.2540,0.1504,-0.9901,-0.1187,0.0840,0.0733,0.0489,-0.0221,-0.0256,0.0003,275.0634,96.6814,8.3995,47.64565012,-122.12144126,0.25999999,
6.2710,0.1504,-0.9901,-0.1187,-0.0039,0.0694,0.0907,-0.0221,-0.0256,0.0003,275.0634,96.6814,8.3995,47.64565012,-122.12144126,0.25999999,
6.2790,0.1504,-0.9901,-0.1187,-0.0039,0.0694,0.0907,-0.0221,-0.0256,0.0003,275.0184,96.7438,8.3857,47.64565012,-122.12144126,0.25999999,
6.2900,0.1427,-0.9882,-0.1264,-0.0039,0.0694,0.0907,-0.0221,-0.0256,0.0003,275.0184,96.7438,8.3857,47.64565012,-122.12144126,0.25999999,
6.3100,0.1427,-0.9882,-0.1264,-0.0340,-0.0060,0.1115,-0.0221,-0.0256,0.0003,275.0184,96.7438,8.3857,47.64565012,-122.12144126,0.25999999,
6.3200,0.1427,-0.9882,-0.1264,-0.0340,-0.0060,0.1115,-0.0298,-0.0105,0.0030,275.0184,96.7438,8.3857,47.64565012,-122.12144126,0.25999999,
6.3210,0.1427,-0.9882,-0.1264,-0.0340,-0.0060,0.1115,-0.0298,-0.0105,0.0030,275.0027,96.8216,8.3797,47.64565012,-122.12144126,0.25999999,
6.3480,0.1427,-0.9882,-0.1264,0.0591,0.0815,0.0696,-0.0298,-0.0105,0.0030,275.0027,96.8216,8.3797,47.64565012,-122.12144126,0.25999999,
6.3590,0.1434,-0.9870,-0.1287,0.0591,0.0815,0.0696,-0.0298,-0.0105,0.0030,275.0027,96.8216,8.3797,47.64565012,-122.12144126,0.25999999,
6.3600,0.1434,-0.9870,-0.1287,0.0591,0.0815,0.0696,-0.0298,-0.0105,0.0030,274.9785,96.8917,8.3613,47.64565012,-122.12144126,0.25999999,
6.3830,0.1434,-0.9870,-0.1287,0.0591,0.0815,0.0696,-0.0166,-0.0076,0.0076,274.9785,96.8917,8.3613,47.64565012,-122.12144126,0.25999999,
6.3880,0.1434,-0.9870,-0.1287,-0.0923,0.0671,0.0044,-0.0166,-0.0076,0.0076,274.9785,96.8917,8.3613,47.64565012,-122.12144126,0.25999999,
6.3990,0.1434,-0.9870,-0.1287,-0.0923,0.0671,0.0044,-0.0166,-0.0076,0.0076,274.9678,96.9000,8.3437,47.64565012,-122.12144126,0.25999999,
6.4190,0.1526,-0.9892,-0.1227,-0.0923,0.0671,0.0044,-0.0166,-0.0076,0.0076,274.9678,96.9000,8.3437,47.64565012,-122.12144126,0.25999999,
6.4280,0.1526,-0.9892,-0.1227,-0.1234,-0.0579,0.1753,-0.0166,-0.0076,0.0076,274.9678,96.9000,8.3437,47.64565012,-122.12144126,0.25999999,
6.4380,0.1526,-0.9892,-0.1227,-0.1234,-0.0579,0.1753,-0.0166,-0.0076,0.0076,275.0197,96.9031,8.3322,47.64565012,-122.12144126,0.25999999,
6.4480,0.1526,-0.9892,-0.1227,-0.1234,-0.0579,0.1753,-0.0038,0.0203,0.0067,275.0197,96.9031,8.3322,47.64565012,-122.12144126,0.25999999,
6.4690,0.1526,-0.9892,-0.1227,0.0453,0.0816,0.0966,-0.0038,0.0203,0.0067,275.0197,96.9031,8.3322,47.64565012,-122.12144126,0.25999999,
6.4780,0.1526,-0.9892,-0.1227,0.0453,0.0816,0.0966,-0.0038,0.0203,0.0067,275.1116,96.9158,8.3399,47.64565012,-122.12144126,0.25999999,
6.4890,0.1464,-0.9845,-0.1329,0.0453,0.0816,0.0966,-0.0038,0.0203,0.0067,275.1116,96.9158,8.3399,47.64565012,-122.12144126,0.25999999,
6.5080,0.1464,-0.9845,-0.1329,0.1012,0.0574,0.1925,-0.0038,0.0203,0.0067,275.1116,96.9158,8.3399,47.64565012,-122.12144126,0.25999999,
6.5130,0.1464,-0.9845,-0.1329,0.1012,0.0574,0.1925,-0.0025,0.0260,0.0021,275.1116,96.9158,8.3399,47.64565012,-122.12144126,0.25999999,
6.5180,0.1464,-0.9845,-0.1329,0.1012,0.0574,0.1925,-0.0025,0.0260,0.0021,275.1472,96.9166,8.3342,47.64565012,-122.12144126,0.25999999,
6.5480,0.1464,-0.9845,-0.1329,0.0705,-0.0182,0.0772,-0.0025,0.0260,0.0021,275.1472,96.9166,8.3342,47.64565012,-122.12144126,0.25999999,
6.5580,0.1464,-0.9845,-0.1329,0.0705,-0.0182,0.0772,-0.0025,0.0260,0.0021,275.0794,97.0034,8.3167,47.64565012,-122.12144126,0.25999999,
6.5590,0.1371,-0.9845,-0.1374,0.0705,-0.0182,0.0772,-0.0025,0.0260,0.0021,275.0794,97.0034,8.3167,47.64565012,-122.12144126,0.25999999,
6.5810,0.1371,-0.9845,-0.1374,0.0705,-0.0182,0.0772,-0.0318,-0.0345,0.0053,275.0794,97.0034,8.3167,47.64565012,-122.12144126,0.25999999,
6.5870,0.1371,-0.9845,-0.1374,0.0128,0.0931,0.0192,-0.0318,-0.0345,0.0053,275.0794,97.0034,8.3167,47.64565012,-122.12144126,0.25999999,
6.5990,0.1371,-0.9845,-0.1374,0.0128,0.0931,0.0192,-0.0318,-0.0345,0.0053,274.9678,97.0830,8.2857,47.64565012,-122.12144126,0.25999999,
6.6180,0.1404,-0.9908,-0.1228,0.0128,0.0931,0.0192,-0.0318,-0.0345,0.0053,274.9678,97.0830,8.2857,47.64565012,-122.12144126,0.25999999,
6.6270,0.1404,-0.9908,-0.1228,0.1086,0.1363,-0.1102,-0.0318,-0.0345,0.0053,274.9678,97.0830,8.2857,47.64565012,-122.12144126,0.25999999,
6.6370,0.1404,-0.9908,-0.1228,0.1086,0.1363,-0.1102,-0.0318,-0.0345,0.0053,274.8771,97.1035,8.2600,47.64565012,-122.12144126,0.25999999,
6.6420,0.1404,-0.9908,-0.1228,0.1086,0.1363,-0.1102,-0.0063,-0.0460,0.0046,274.8771,97.1035,8.2600,47.64565012,-122.12144126,0.25999999,
6.6680,0.1404,-0.9908,-0.1228,0.1794,0.0971,-0.0004,-0.0063,-0.0460,0.0046,274.8771,97.1035,8.2600,47.64565012,-122.12144126,0.25999999,
6.6770,0.1404,-0.9908,-0.1228,0.1794,0.0971,-0.0004,-0.0063,-0.0460,0.0046,274.7657,97.0921,8.2260,47.64565012,-122.12144126,0.25999999,
6.6870,0.1334,-0.9929,-0.1188,0.1794,0.0971,-0.0004,-0.0063,-0.0460,0.0046,274.7657,97.0921,8.2260,47.64565012,-122.12144126,0.25999999,
6.7070,0.1334,-0.9929,-0.1188,-0.0655,0.0812,0.1412,-0.0063,-0.0460,0.0046,274.7657,97.0921,8.2260,47.64565012,-122.12144126,0.25999999,
6.7080,0.1334,-0.9929,-0.1188,-0.0655,0.0812,0.1412,0.0164,-0.0581,0.0088,274.7657,97.0921,8.2260,47.64565012,-122.12144126,0.25999999,
6.7170,0.1334,-0.9929,-0.1188,-0.0655,0.0812,0.1412,0.0164,-0.0581,0.0088,274.6088,97.0725,8.1843,47.64565012,-122.12144126,0.25999999,
6.7470,0.1334,-0.9929,-0.1188,-0.1319,0.0361,-0.1466,0.0164,-0.0581,0.0088,274.6088,97.0725,8.1843,47.64565012,-122.12144126,0.25999999,
6.7570,0.1466,-0.9885,-0.1200,-0.1319,0.0361,-0.1466,0.0164,-0.0581,0.0088,274.6088,97.0725,8.1843,47.64565012,-122.12144126,0.25999999,
6.7580,0.1466,-0.9885,-0.1200,-0.1319,0.0361,-0.1466,0.0164,-0.0581,0.0088,274.3559,97.0158,8.1398,47.64565012,-122.12144126,0.25999999,
6.7710,0.1466,-0.9885,-0.1200,-0.1319,0.0361,-0.1466,0.0366,-0.0921,0.0064,274.3559,97.0158,8.1398,47.64565012,-122.12144126,0.25999999,
6.7870,0.1466,-0.9885,-0.1200,0.1362,0.0771,0.0979,0.0366,-0.0921,0.0064,274.3559,97.0158,8.1398,47.64565012,-122.12144126,0.25999999,
6.7970,0.1466,-0.9885,-0.1200,0.1362,0.0771,0.0979,0.0366,-0.0921,0.0064,274.2414,96.9482,8.1118,47.64565012,-122.12144126,0.25999999,
6.8260,0.1466,-0.9885,-0.1200,0.0805,0.0461,0.0879,0.0366,-0.0921,0.0064,274.2414,96.9482,8.1118,47.64565012,-122.12144126,0.25999999,
6.8280,0.1351,-0.9908,-0.1210,0.0805,0.0461,0.0879,0.0366,-0.0921,0.0064,274.2414,96.9482,8.1118,47.64565012,-122.12144126,0.25999999,
6.8360,0.1351,-0.9908,-0.1210,0.0805,0.0461,0.0879,0.0321,-0.0479,0.0126,274.2414,96.9482,8.1118,47.64565012,-122.12144126,0.25999999,
6.8370,0.1351,-0.9908,-0.1210,0.0805,0.0461,0.0879,0.0321,-0.0479,0.0126,274.1317,96.8959,8.0602,47.64565012,-122.12144126,0.25999999,
6.8660,0.1351,-0.9908,-0.1210,-0.0090,-0.0275,0.2351,0.0321,-0.0479,0.0126,274.1317,96.8959,8.0602,47.64565012,-122.12144126,0.25999999,
6.8750,0.1351,-0.9908,-0.1210,-0.0090,-0.0275,0.2351,0.0321,-0.0479,0.0126,274.0732,96.8800,8.0185,47.64565012,-122.12144126,0.25999999,
6.8860,0.1383,-0.9856,-0.1423,-0.0090,-0.0275,0.2351,0.0321,-0.0479,0.0126,274.0732,96.8800,8.0185,47.64565012,-122.12144126,0.25999999,
6.9010,0.1383,-0.9856,-0.1423,-0.0090,-0.0275,0.2351,0.0012,-0.0217,0.0098,274.0732,96.8800,8.0185,47.64565012,-122.12144126,0.25999999,
6.9050,0.1383,-0.9856,-0.1423,0.1829,-0.0225,0.2715,0.0012,-0.0217,0.0098,274.0732,96.8800,8.0185,47.64565012,-122.12144126,0.25999999,
6.9170,0.1383,-0.9856,-0.1423,0.1829,-0.0225,0.2715,0.0012,-0.0217,0.0098,274.0525,96.9316,7.9953,47.64565012,-122.12144126,0.25999999,
6.9460,0.1383,-0.9856,-0.1423,-0.0864,0.0404,0.1541,0.0012,-0.0217,0.0098,274.0525,96.9316,7.9953,47.64565012,-122.12144126,0.25999999,
6.9560,0.1329,-0.9841,-0.1451,-0.0864,0.0404,0.1541,0.0012,-0.0217,0.0098,274.0525,96.9316,7.9953,47.64565012,-122.12144126,0.25999999,
6.9570,0.1329,-0.9841,-0.1451,-0.0864,0.0404,0.1541,0.0012,-0.0217,0.0098,274.0209,97.0080,7.9549,47.64565012,-122.12144126,0.25999999,
6.9670,0.1329,-0.9841,-0.1451,-0.0864,0.0404,0.1541,-0.0258,-0.0056,0.0137,274.0209,97.0080,7.9549,47.64565012,-122.12144126,0.25999999,
6.9860,0.1329,-0.9841,-0.1451,-0.0830,-0.0161,0.2112,-0.0258,-0.0056,0.0137,274.0209,97.0080,7.9549,47.64565012,-122.12144126,0.25999999,
6.9960,0.1329,-0.9841,-0.1451,-0.0830,-0.0161,0.2112,-0.0258,-0.0056,0.0137,274.0648,97.0635,7.9593,47.64565012,-122.12144126,0.25999999,
7.0260,0.1329,-0.9841,-0.1451,0.0707,-0.0050,0.0392,-0.0258,-0.0056,0.0137,274.0648,97.0635,7.9593,47.64565012,-122.12144126,0.25999999,
7.0270,0.1446,-0.9857,-0.1386,0.0707,-0.0050,0.0392,-0.0258,-0.0056,0.0137,274.0648,97.0635,7.9593,47.64565012,-122.12144126,0.25999999,
7.0300,0.1446,-0.9857,-0.1386,0.0707,-0.0050,0.0392,-0.0248,-0.0070,-0.0024,274.0648,97.0635,7.9593,47.64565012,-122.12144126,0.25999999,
7.0350,0.1446,-0.9857,-0.1386,0.0707,-0.0050,0.0392,-0.0248,-0.0070,-0.0024,274.0045,97.1304,7.9577,47.64565012,-122.12144126,0.25999999,
7.0650,0.1446,-0.9857,-0.1386,-0.0667,0.0482,0.3627,-0.0248,-0.0070,-0.0024,274.0045,97.1304,7.9577,47.64565012,-122.12144126,0.25999999,
7.0750,0.1446,-0.9857,-0.1386,-0.0667,0.0482,0.3627,-0.0248,-0.0070,-0.0024,273.9716,97.1755,7.9392,47.64565012,-122.12144126,0.25999999,
7.0850,0.1413,-0.9868,-0.1477,-0.0667,0.0482,0.3627,-0.0248,-0.0070,-0.0024,273.9716,97.1755,7.9392,47.64565012,-122.12144126,0.25999999,
7.0960,0.1413,-0.9868,-0.1477,-0.0667,0.0482,0.3627,-0.0159,-0.0370,-0.0002,273.9716,97.1755,7.9392,47.64565012,-122.12144126,0.25999999,
7.1050,0.1413,-0.9868,-0.1477,-0.1317,-0.1079,0.2073,-0.0159,-0.0370,-0.0002,273.9716,97.1755,7.9392,47.64565012,-122.12144126,0.25999999,
7.1150,0.1413,-0.9868,-0.1477,-0.1317,-0.1079,0.2073,-0.0159,-0.0370,-0.0002,273.8091,97.2640,7.9657,47.64565012,-122.12144126,0.25999999,
7.1450,0.1413,-0.9868,-0.1477,0.1511,0.1205,0.0609,-0.0159,-0.0370,-0.0002,273.8091,97.2640,7.9657,47.64565012,-122.12144126,0.25999999,
7.1550,0.1363,-0.9829,-0.1396,0.1511,0.1205,0.0609,-0.0159,-0.0370,-0.0002,273.8091,97.2640,7.9657,47.64565012,-122.12144126,0.25999999,
7.1560,0.1363,-0.9829,-0.1396,0.1511,0.1205,0.0609,-0.0159,-0.0370,-0.0002,273.8038,97.3751,7.9930,47.64565012,-122.12144126,0.25999999,
7.1590,0.1363,-0.9829,-0.1396,0.1511,0.1205,0.0609,-0.0421,-0.0071,-0.0166,273.8038,97.3751,7.9930,47.64565012,-122.12144126,0.25999999,
7.1840,0.1363,-0.9829,-0.1396,-0.0256,0.0366,0.0577,-0.0421,-0.0071,-0.0166,273.8038,97.3751,7.9930,47.64565012,-122.12144126,0.25999999,
7.1950,0.1363,-0.9829,-0.1396,-0.0256,0.0366,0.0577,-0.0421,-0.0071,-0.0166,273.8839,97.4404,8.0269,47.64565012,-122.12144126,0.25999999,
7.2250,0.1363,-0.9829,-0.1396,0.1362,0.0955,-0.0196,-0.0421,-0.0071,-0.0166,273.8839,97.4404,8.0269,47.64565012,-122.12144126,0.25999999,
7.2260,0.1363,-0.9829,-0.1396,0.1362,0.0955,-0.0196,-0.0227,0.0266,-0.0095,273.8839,97.4404,8.0269,47.64565012,-122.12144126,0.25999999,
7.2270,0.1378,-0.9906,-0.1311,0.1362,0.0955,-0.0196,-0.0227,0.0266,-0.0095,273.8839,97.4404,8.0269,47.64565012,-122.12144126,0.25999999,
7.2340,0.1378,-0.9906,-0.1311,0.1362,0.0955,-0.0196,-0.0227,0.0266,-0.0095,273.9271,97.4655,8.0444,47.64565012,-122.12144126,0.25999999,
7.2640,0.1378,-0.9906,-0.1311,0.1700,0.0809,0.1435,-0.0227,0.0266,-0.0095,273.9271,97.4655,8.0444,47.64565012,-122.12144126,0.25999999,
7.2740,0.1378,-0.9906,-0.1311,0.1700,0.0809,0.1435,-0.0227,0.0266,-0.0095,273.9539,97.4409,8.0460,47.64565012,-122.12144126,0.25999999,
7.2860,0.1281,-0.9916,-0.1303,0.1700,0.0809,0.1435,-0.0227,0.0266,-0.0095,273.9539,97.4409,8.0460,47.64565012,-122.12144126,0.25999999,
7.2880,0.1281,-0.9916,-0.1303,0.1700,0.0809,0.1435,0.0107,0.0135,-0.0038,273.9539,97.4409,8.0460,47.64565012,-122.12144126,0.25999999,
7.3050,0.1281,-0.9916,-0.1303,0.0203,-0.0104,0.0499,0.0107,0.0135,-0.0038,273.9539,97.4409,8.0460,47.64565012,-122.12144126,0.25999999,
7.3140,0.1281,-0.9916,-0.1303,0.0203,-0.0104,0.0499,0.0107,0.0135,-0.0038,273.9741,97.4208,8.0689,47.64565012,-122.12144126,0.25999999,
7.3440,0.1281,-0.9916,-0.1303,-0.0460,0.0332,0.1509,0.0107,0.0135,-0.0038,273.9741,97.4208,8.0689,47.64565012,-122.12144126,0.25999999,
7.3540,0.1406,-0.9859,-0.1360,-0.0460,0.0332,0.1509,0.0107,0.0135,-0.0038,273.9741,97.4208,8.0689,47.64565012,-122.12144126,0.25999999,
7.3550,0.1406,-0.9859,-0.1360,-0.0460,0.0332,0.1509,-0.0047,0.0099,-0.0019,273.9741,97.4208,8.0689,47.64565012,-122.12144126,0.25999999,
7.3550,0.1406,-0.9859,-0.1360,-0.0460,0.0332,0.1509,-0.0047,0.0099,-0.0019,274.0040,97.4386,8.0679,47.64565012,-122.12144126,0.25999999,
7.3840,0.1406,-0.9859,-0.1360,-0.0238,0.0244,-0.0123,-0.0047,0.0099,-0.0019,274.0040,97.4386,8.0679,47.64565012,-122.12144126,0.25999999,
7.3940,0.1406,-0.9859,-0.1360,-0.0238,0.0244,-0.0123,-0.0047,0.0099,-0.0019,274.0611,97.4528,8.0923,47.64565012,-122.12144126,0.25999999,
7.4190,0.1406,-0.9859,-0.1360,-0.0238,0.0244,-0.0123,-0.0079,0.0381,-0.0041,274.0611,97.4528,8.0923,47.64565012,-122.12144126,0.25999999,
7.4230,0.1406,-0.9859,-0.1360,-0.0638,0.1589,0.0591,-0.0079,0.0381,-0.0041,274.0611,97.4528,8.0923,47.64565012,-122.12144126,0.25999999,
7.4240,0.1434,-0.9864,-0.1315,-0.0638,0.1589,0.0591,-0.0079,0.0381,-0.0041,274.0611,97.4528,8.0923,47.64565012,-122.12144126,0.25999999,
7.4330,0.1434,-0.9864,-0.1315,-0.0638,0.1589,0.0591,-0.0079,0.0381,-0.0041,274.1656,97.4513,8.1048,47.64565012,-122.12144126,0.25999999,
7.4630,0.1434,-0.9864,-0.1315,-0.0229,-0.0320,0.0946,-0.0079,0.0381,-0.0041,274.1656,97.4513,8.1048,47.64565012,-122.12144126,0.25999999,
7.4730,0.1434,-0.9864,-0.1315,-0.0229,-0.0320,0.0946,-0.0079,0.0381,-0.0041,274.3152,97.4751,8.1278,47.64565012,-122.12144126,0.25999999,
7.4830,0.1434,-0.9864,-0.1315,-0.0229,-0.0320,0.0946,-0.0194,0.0620,-0.0017,274.3152,97.4751,8.1278,47.64565012,-122.12144126,0.25999999,
7.4940,0.1411,-0.9869,-0.1380,-0.0229,-0.0320,0.0946,-0.0194,0.0620,-0.0017,274.3152,97.4751,8.1278,47.64565012,-122.12144126,0.25999999,
7.5030,0.1411,-0.9869,-0.1380,0.1201,0.0509,0.0128,-0.0194,0.0620,-0.0017,274.3152,97.4751,8.1278,47.64565012,-122.12144126,0.25999999,
7.5140,0.1411,-0.9869,-0.1380,0.1201,0.0509,0.0128,-0.0194,0.0620,-0.0017,274.4779,97.4999,8.1517,47.64565012,-122.12144126,0.25999999,
7.5430,0.1411,-0.9869,-0.1380,0.0981,0.1370,-0.0082,-0.0194,0.0620,-0.0017,274.4779,97.4999,8.1517,47.64565012,-122.12144126,0.25999999,
7.5480,0.1411,-0.9869,-0.1380,0.0981,0.1370,-0.0082,-0.0034,0.0537,-0.0004,274.4779,97.4999,8.1517,47.64565012,-122.12144126,0.25999999,
7.5530,0.1411,-0.9869,-0.1380,0.0981,0.1370,-0.0082,-0.0034,0.0537,-0.0004,274.5730,97.4781,8.1591,47.64565012,-122.12144126,0.25999999,
7.5540,0.1337,-0.9918,-0.1292,0.0981,0.1370,-0.0082,-0.0034,0.0537,-0.0004,274.5730,97.4781,8.1591,47.64565012,-122.12144126,0.25999999,
7.5830,0.1337,-0.9918,-0.1292,0.0612,-0.0504,0.0781,-0.0034,0.0537,-0.0004,274.5730,97.4781,8.1591,47.64565012,-122.12144126,0.25999999,
7.5930,0.1337,-0.9918,-0.1292,0.0612,-0.0504,0.0781,-0.0034,0.0537,-0.0004,274.7264,97.4504,8.1679,47.64565012,-122.12144126,0.25999999,
7.6130,0.1337,-0.9918,-0.1292,0.0612,-0.0504,0.0781,0.0038,0.0467,0.0020,274.7264,97.4504,8.1679,47.64565012,-122.12144126,0.25999999,
7.6230,0.1325,-0.9839,-0.1362,0.0612,-0.0504,0.0781,0.0038,0.0467,0.0020,274.7264,97.4504,8.1679,47.64565012,-122.12144126,0.25999999,
7.6240,0.1325,-0.9839,-0.1362,0.1997,0.1123,0.0230,0.0038,0.0467,0.0020,274.7264,97.4504,8.1679,47.64565012,-122.12144126,0.25999999,
7.6320,0.1325,-0.9839,-0.1362,0.1997,0.1123,0.0230,0.0038,0.0467,0.0020,274.7509,97.4351,8.1650,47.64565012,-122.12144126,0.25999999,
7.6620,0.1325,-0.9839,-0.1362,-0.0490,-0.0604,0.1525,0.0038,0.0467,0.0020,274.7509,97.4351,8.1650,47.64565012,-122.12144126,0.25999999,
7.6730,0.1325,-0.9839,-0.1362,-0.0490,-0.0604,0.1525,0.0038,0.0467,0.0020,274.8003,97.4324,8.1685,47.64565012,-122.12144126,0.25999999,
7.6770,0.1325,-0.9839,-0.1362,-0.0490,-0.0604,0.1525,0.0012,0.0199,-0.0006,274.8003,97.4324,8.1685,47.64565012,-122.12144126,0.25999999,
7.6940,0.1390,-0.9861,-0.1351,-0.0490,-0.0604,0.1525,0.0012,0.0199,-0.0006,274.8003,97.4324,8.1685,47.64565012,-122.12144126,0.25999999,
7.7020,0.1390,-0.9861,-0.1351,0.0507,0.0697,-0.0003,0.0012,0.0199,-0.0006,274.8003,97.4324,8.1685,47.64565012,-122.12144126,0.25999999,
7.7120,0.1390,-0.9861,-0.1351,0.0507,0.0697,-0.0003,0.0012,0.0199,-0.0006,274.8735,97.4394,8.1908,47.64565012,-122.12144126,0.25999999,
7.7420,0.1390,-0.9861,-0.1351,0.0117,0.0408,0.0094,0.0012,0.0199,-0.0006,274.8735,97.4394,8.1908,47.64565012,-122.12144126,0.25999999,
7.7430,0.1390,-0.9861,-0.1351,0.0117,0.0408,0.0094,-0.0038,0.0253,0.0009,274.8735,97.4394,8.1908,47.64565012,-122.12144126,0.25999999,
7.7530,0.1390,-0.9861,-0.1351,0.0117,0.0408,0.0094,-0.0038,0.0253,0.0009,274.9220,97.4350,8.1828,47.64565012,-122.12144126,0.25999999,
7.7540,0.1409,-0.9892,-0.1324,0.0117,0.0408,0.0094,-0.0038,0.0253,0.0009,274.9220,97.4350,8.1828,47.64565012,-122.12144126,0.25999999,
7.7820,0.1409,-0.9892,-0.1324,-0.0063,0.0024,0.1343,-0.0038,0.0253,0.0009,274.9220,97.4350,8.1828,47.64565012,-122.12144126,0.25999999,
7.7920,0.1409,-0.9892,-0.1324,-0.0063,0.0024,0.1343,-0.0038,0.0253,0.0009,274.9937,97.4295,8.1967,47.64565012,-122.12144126,0.25999999,
7.8070,0.1409,-0.9892,-0.1324,-0.0063,0.0024,0.1343,-0.0013,0.0238,-0.0026,274.9937,97.4295,8.1967,47.64565012,-122.12144126,0.25999999,
7.8210,0.1409,-0.9892,-0.1324,0.0532,0.0748,0.0052,-0.0013,0.0238,-0.0026,274.9937,97.4295,8.1967,47.64565012,-122.12144126,0.25999999,
7.8230,0.1404,-0.9859,-0.1362,0.0532,0.0748,0.0052,-0.0013,0.0238,-0.0026,274.9937,97.4295,8.1967,47.64565012,-122.12144126,0.25999999,
7.8320,0.1404,-0.9859,-0.1362,0.0532,0.0748,0.0052,-0.0013,0.0238,-0.0026,274.9944,97.4396,8.2050,47.64565012,-122.12144126,0.25999999,
7.8620,0.1404,-0.9859,-0.1362,0.0475,0.0940,0.0319,-0.0013,0.0238,-0.0026,274.9944,97.4396,8.2050,47.64565012,-122.12144126,0.25999999,
7.8710,0.1404,-0.9859,-0.1362,0.0475,0.0940,0.0319,-0.0013,0.0238,-0.0026,275.0067,97.4455,8.1983,47.64565012,-122.12144126,0.25999999,
7.8720,0.1404,-0.9859,-0.1362,0.0475,0.0940,0.0319,-0.0030,0.0019,0.0006,275.0067,97.4455,8.1983,47.64565012,-122.12144126,0.25999999,
7.8920,0.1388,-0.9901,-0.1325,0.0475,0.0940,0.0319,-0.0030,0.0019,0.0006,275.0067,97.4455,8.1983,47.64565012,-122.12144126,0.25999999,
7.9010,0.1388,-0.9901,-0.1325,-0.0527,-0.0257,0.0887,-0.0030,0.0019,0.0006,275.0067,97.4455,8.1983,47.64565012,-122.12144126,0.25999999,
7.9120,0.1388,-0.9901,-0.1325,-0.0527,-0.0257,0.0887,-0.0030,0.0019,0.0006,274.9889,97.4480,8.2014,47.64565012,-122.12144126,0.25999999,
7.9370,0.1388,-0.9901,-0.1325,-0.0527,-0.0257,0.0887,0.0021,-0.0180,-0.0028,274.9889,97.4480,8.2014,47.64565012,-122.12144126,0.25999999,
7.9400,0.1388,-0.9901,-0.1325,-0.0048,0.0798,-0.0589,0.0021,-0.0180,-0.0028,274.9889,97.4480,8.2014,47.64565012,-122.12144126,0.25999999,
7.9520,0.1456,-0.9838,-0.1324,-0.0048,0.0798,-0.0589,0.0021,-0.0180,-0.0028,274.9889,97.4480,8.2014,47.64565012,-122.12144126,0.25999999,
7.9530,0.1456,-0.9838,-0.1324,-0.0048,0.0798,-0.0589,0.0021,-0.0180,-0.0028,274.9172,97.4477,8.1974,47.64565012,-122.12144126,0.25999999,
7.9810,0.1456,-0.9838,-0.1324,-0.1804,0.0311,0.1185,0.0021,-0.0180,-0.0028,274.9172,97.4477,8.1974,47.64565012,-122.12144126,0.25999999,
7.9910,0.1456,-0.9838,-0.1324,-0.1804,0.0311,0.1185,0.0021,-0.0180,-0.0028,274.8966,97.4450,8.1757,47.64565012,-122.12144126,0.25999999,
8.0010,0.1456,-0.9838,-0.1324,-0.1804,0.0311,0.1185,0.0014,-0.0095,0.0076,274.8966,97.4450,8.1757,47.64565012,-122.12144126,0.25999999,
8.0210,0.1456,-0.9838,-0.1324,-0.1472,0.0655,0.0691,0.0014,-0.0095,0.0076,274.8966,97.4450,8.1757,47.64565012,-122.12144126,0.25999999,
8.0220,0.1551,-0.9828,-0.1425,-0.1472,0.0655,0.0691,0.0014,-0.0095,0.0076,274.8966,97.4450,8.1757,47.64565012,-122.12144126,0.25999999,
8.0310,0.1551,-0.9828,-0.1425,-0.1472,0.0655,0.0691,0.0014,-0.0095,0.0076,274.9178,97.4941,8.1790,47.64565012,-122.12144126,0.25999999,
8.0600,0.1551,-0.9828,-0.1425,-0.0610,0.0571,0.0566,0.0014,-0.0095,0.0076,274.9178,97.4941,8.1790,47.64565012,-122.12144126,0.25999999,
8.0650,0.1551,-0.9828,-0.1425,-0.0610,0.0571,0.0566,-0.0216,0.0194,0.0012,274.9178,97.4941,8.1790,47.64565012,-122.12144126,0.25999999,
8.0700,0.1551,-0.9828,-0.1425,-0.0610,0.0571,0.0566,-0.0216,0.0194,0.0012,274.9756,97.5347,8.1854,47.64565012,-122.12144126,0.25999999,
8.0900,0.1476,-0.9872,-0.1352,-0.0610,0.0571,0.0566,-0.0216,0.0194,0.0012,274.9756,97.5347,8.1854,47.64565012,-122.12144126,0.25999999,
8.1010,0.1476,-0.9872,-0.1352,0.0958,0.1342,-0.1606,-0.0216,0.0194,0.0012,274.9756,97.5347,8.1854,47.64565012,-122.12144126,0.25999999,
8.1100,0.1476,-0.9872,-0.1352,0.0958,0.1342,-0.1606,-0.0216,0.0194,0.0012,274.9705,97.5459,8.1744,47.64565012,-122.12144126,0.25999999,
8.1310,0.1476,-0.9872,-0.1352,0.0958,0.1342,-0.1606,-0.0056,0.0070,0.0058,274.9705,97.5459,8.1744,47.64565012,-122.12144126,0.25999999,
8.1400,0.1476,-0.9872,-0.1352,0.0925,-0.0243,0.1183,-0.0056,0.0070,0.0058,274.9705,97.5459,8.1744,47.64565012,-122.12144126,0.25999999,
8.1500,0.1476,-0.9872,-0.1352,0.0925,-0.0243,0.1183,-0.0056,0.0070,0.0058,275.0201,97.5597,8.1599,47.64565012,-122.12144126,0.25999999,
8.1600,0.1335,-0.9892,-0.1314,0.0925,-0.0243,0.1183,-0.0056,0.0070,0.0058,275.0201,97.5597,8.1599,47.64565012,-122.12144126,0.25999999,
8.1800,0.1335,-0.9892,-0.1314,0.0460,0.0866,0.0954,-0.0056,0.0070,0.0058,275.0201,97.5597,8.1599,47.64565012,-122.12144126,0.25999999,
8.1890,0.1335,-0.9892,-0.1314,0.0460,0.0866,0.0954,-0.0056,0.0070,0.0058,275.0756,97.5779,8.1712,47.64565012,-122.12144126,0.25999999,
8.1940,0.1335,-0.9892,-0.1314,0.0460,0.0866,0.0954,-0.0088,0.0180,-0.0016,275.0756,97.5779,8.1712,47.64565012,-122.12144126,0.25999999,
8.2200,0.1335,-0.9892,-0.1314,0.1509,0.0868,-0.0716,-0.0088,0.0180,-0.0016,275.0756,97.5779,8.1712,47.64565012,-122.12144126,0.25999999,
8.2210,0.1335,-0.9903,-0.1363,0.1509,0.0868,-0.0716,-0.0088,0.0180,-0.0016,275.0756,97.5779,8.1712,47.64565012,-122.12144126,0.25999999,
8.2300,0.1335,-0.9903,-0.1363,0.1509,0.0868,-0.0716,-0.0088,0.0180,-0.0016,275.0549,97.5839,8.1656,47.64565012,-122.12144126,0.25999999,
8.2600,0.1335,-0.9903,-0.1363,0.0728,0.0194,0.1182,-0.0088,0.0180,-0.0016,275.0549,97.5839,8.1656,47.64565012,-122.12144126,0.25999999,
8.2610,0.1335,-0.9903,-0.1363,0.0728,0.0194,0.1182,-0.0001,0.0010,0.0025,275.0549,97.5839,8.1656,47.64565012,-122.12144126,0.25999999,
8.2700,0.1335,-0.9903,-0.1363,0.0728,0.0194,0.1182,-0.0001,0.0010,0.0025,275.0724,97.5810,8.1561,47.64565012,-122.12144126,0.25999999,
8.2900,0.1361,-0.9829,-0.1361,0.0728,0.0194,0.1182,-0.0001,0.0010,0.0025,275.0724,97.5810,8.1561,47.64565012,-122.12144126,0.25999999,
8.2990,0.1361,-0.9829,-0.1361,-0.0346,0.0956,0.0243,-0.0001,0.0010,0.0025,275.0724,97.5810,8.1561,47.64565012,-122.12144126,0.25999999,
8.3090,0.1361,-0.9829,-0.1361,-0.0346,0.0956,0.0243,-0.0001,0.0010,0.0025,275.0651,97.5750,8.1447,47.64565012,-122.12144126,0.25999999,
8.3240,0.1361,-0.9829,-0.1361,-0.0346,0.0956,0.0243,0.0007,-0.0000,0.0012,275.0651,97.5750,8.1447,47.64565012,-122.12144126,0.25999999,
8.3390,0.1361,-0.9829,-0.1361,0.0339,-0.0188,0.1877,0.0007,-0.0000,0.0012,275.0651,97.5750,8.1447,47.64565012,-122.12144126,0.25999999,
8.3500,0.1361,-0.9829,-0.1361,0.0339,-0.0188,0.1877,0.0007,-0.0000,0.0012,275.0863,97.6004,8.1574,47.64565012,-122.12144126,0.25999999,
8.3600,0.1422,-0.9862,-0.1429,0.0339,-0.0188,0.1877,0.0007,-0.0000,0.0012,275.0863,97.6004,8.1574,47.64565012,-122.12144126,0.25999999,
8.3790,0.1422,-0.9862,-0.1429,0.0590,0.0446,-0.0563,0.0007,-0.0000,0.0012,275.0863,97.6004,8.1574,47.64565012,-122.12144126,0.25999999,
8.3890,0.1422,-0.9862,-0.1429,0.0590,0.0446,-0.0563,0.0007,-0.0000,0.0012,275.0602,97.6399,8.1622,47.64565012,-122.12144126,0.25999999,
8.3900,0.1422,-0.9862,-0.1429,0.0590,0.0446,-0.0563,-0.0146,-0.0028,-0.0038,275.0602,97.6399,8.1622,47.64565012,-122.12144126,0.25999999,
8.4190,0.1422,-0.9862,-0.1429,-0.0272,0.0543,0.0420,-0.0146,-0.0028,-0.0038,275.0602,97.6399,8.1622,47.64565012,-122.12144126,0.25999999,
8.4200,0.1408,-0.9871,-0.1318,-0.0272,0.0543,0.0420,-0.0146,-0.0028,-0.0038,275.0602,97.6399,8.1622,47.64565012,-122.12144126,0.25999999,
8.4290,0.1408,-0.9871,-0.1318,-0.0272,0.0543,0.0420,-0.0146,-0.0028,-0.0038,275.0874,97.6381,8.1626,47.64565012,-122.12144126,0.25999999,
8.4540,0.1408,-0.9871,-0.1318,-0.0272,0.0543,0.0420,0.0021,0.0069,-0.0011,275.0874,97.6381,8.1626,47.64565012,-122.12144126,0.25999999,
8.4590,0.1408,-0.9871,-0.1318,0.0499,0.0255,0.0862,0.0021,0.0069,-0.0011,275.0874,97.6381,8.1626,47.64565012,-122.12144126,0.25999999,
8.4700,0.1408,-0.9871,-0.1318,0.0499,0.0255,0.0862,0.0021,0.0069,-0.0011,275.0810,97.6350,8.1662,47.64565012,-122.12144126,0.25999999,
8.4890,0.1347,-0.9857,-0.1389,0.0499,0.0255,0.0862,0.0021,0.0069,-0.0011,275.0810,97.6350,8.1662,47.64565012,-122.12144126,0.25999999,
8.4990,0.1347,-0.9857,-0.1389,0.0068,0.0069,0.0489,0.0021,0.0069,-0.0011,275.0810,97.6350,8.1662,47.64565012,-122.12144126,0.25999999,
8.5080,0.1347,-0.9857,-0.1389,0.0068,0.0069,0.0489,0.0021,0.0069,-0.0011,275.0666,97.6662,8.1661,47.64565012,-122.12144126,0.25999999,
8.5190,0.1347,-0.9857,-0.1389,0.0068,0.0069,0.0489,-0.0096,-0.0051,-0.0020,275.0666,97.6662,8.1661,47.64565012,-122.12144126,0.25999999,
8.5390,0.1347,-0.9857,-0.1389,0.0556,0.1465,-0.0593,-0.0096,-0.0051,-0.0020,275.0666,97.6662,8.1661,47.64565012,-122.12144126,0.25999999,
8.5480,0.1347,-0.9857,-0.1389,0.0556,0.1465,-0.0593,-0.0096,-0.0051,-0.0020,275.0720,97.6835,8.1740,47.64565012,-122.12144126,0.25999999,
8.5590,0.1408,-0.9869,-0.1320,0.0556,0.1465,-0.0593,-0.0096,-0.0051,-0.0020,275.0720,97.6835,8.1740,47.64565012,-122.12144126,0.25999999,
8.5790,0.1408,-0.9869,-0.1320,0.0374,0.0272,0.0425,-0.0096,-0.0051,-0.0020,275.0720,97.6835,8.1740,47.64565012,-122.12144126,0.25999999,
8.5830,0.1408,-0.9869,-0.1320,0.0374,0.0272,0.0425,-0.0068,0.0018,-0.0037,275.0720,97.6835,8.1740,47.64565012,-122.12144126,0.25999999,
8.5880,0.1408,-0.9869,-0.1320,0.0374,0.0272,0.0425,-0.0068,0.0018,-0.0037,275.0698,97.7001,8.1791,47.64565012,-122.12144126,0.25999999,
8.6180,0.1408,-0.9869,-0.1320,0.1240,0.0709,0.0720,-0.0068,0.0018,-0.0037,275.0698,97.7001,8.1791,47.64565012,-122.12144126,0.25999999,
8.6200,0.1336,-0.9852,-0.1400,0.1240,0.0709,0.0720,-0.0068,0.0018,-0.0037,275.0698,97.7001,8.1791,47.64565012,-122.12144126,0.25999999,
8.6270,0.1336,-0.9852,-0.1400,0.1240,0.0709,0.0720,-0.0068,0.0018,-0.0037,275.0494,97.7220,8.1829,47.64565012,-122.12144126,0.25999999,
8.6480,0.1336,-0.9852,-0.1400,0.1240,0.0709,0.0720,-0.0070,-0.0092,-0.0042,275.0494,97.7220,8.1829,47.64565012,-122.12144126,0.25999999,
8.6580,0.1336,-0.9852,-0.1400,0.0050,0.1144,-0.0156,-0.0070,-0.0092,-0.0042,275.0494,97.7220,8.1829,47.64565012,-122.12144126,0.25999999,
8.6670,0.1336,-0.9852,-0.1400,0.0050,0.1144,-0.0156,-0.0070,-0.0092,-0.0042,275.0419,97.7300,8.1861,47.64565012,-122.12144126,0.25999999,
8.6880,0.1442,-0.9873,-0.1343,0.0050,0.1144,-0.0156,-0.0070,-0.0092,-0.0042,275.0419,97.7300,8.1861,47.64565012,-122.12144126,0.25999999,
8.6980,0.1442,-0.9873,-0.1343,-0.1461,-0.0338,0.0318,-0.0070,-0.0092,-0.0042,275.0419,97.7300,8.1861,47.64565012,-122.12144126,0.25999999,
8.7070,0.1442,-0.9873,-0.1343,-0.1461,-0.0338,0.0318,-0.0070,-0.0092,-0.0042,275.0031,97.7340,8.1956,47.64565012,-122.12144126,0.25999999,
8.7130,0.1442,-0.9873,-0.1343,-0.1461,-0.0338,0.0318,0.0011,-0.0135,-0.0043,275.0031,97.7340,8.1956,47.64565012,-122.12144126,0.25999999,
8.7370,0.1442,-0.9873,-0.1343,-0.0127,0.1769,0.0651,0.0011,-0.0135,-0.0043,275.0031,97.7340,8.1956,47.64565012,-122.12144126,0.25999999,
8.7470,0.1442,-0.9873,-0.1343,-0.0127,0.1769,0.0651,0.0011,-0.0135,-0.0043,274.9969,97.7289,8.1909,47.64565012,-122.12144126,0.25999999,
8.7580,0.1467,-0.9889,-0.1347,-0.0127,0.1769,0.0651,0.0011,-0.0135,-0.0043,274.9969,97.7289,8.1909,47.64565012,-122.12144126,0.25999999,
8.7770,0.1467,-0.9889,-0.1347,-0.0608,-0.0861,0.1706,0.0011,-0.0135,-0.0043,274.9969,97.7289,8.1909,47.64565012,-122.12144126,0.25999999,
8.7780,0.1467,-0.9889,-0.1347,-0.0608,-0.0861,0.1706,-0.0068,0.0246,0.0054,274.9969,97.7289,8.1909,47.64565012,-122.12144126,0.25999999,
8.7880,0.1467,-0.9889,-0.1347,-0.0608,-0.0861,0.1706,-0.0068,0.0246,0.0054,275.0804,97.7629,8.1949,47.64565012,-122.12144126,0.25999999,
8.8170,0.1467,-0.9889,-0.1347,0.0836,0.0831,-0.0524,-0.0068,0.0246,0.0054,275.0804,97.7629,8.1949,47.64565012,-122.12144126,0.25999999,
8.8270,0.1467,-0.9889,-0.1347,0.0836,0.0831,-0.0524,-0.0068,0.0246,0.0054,275.1146,97.8220,8.1977,47.64565012,-122.12144126,0.25999999,
8.8270,0.1466,-0.9804,-0.1442,0.0836,0.0831,-0.0524,-0.0068,0.0246,0.0054,275.1146,97.8220,8.1977,47.64565012,-122.12144126,0.25999999,
8.8420,0.1466,-0.9804,-0.1442,0.0836,0.0831,-0.0524,-0.0250,0.0241,0.0028,275.1146,97.8220,8.1977,47.64565012,-122.12144126,0.25999999,
8.8570,0.1466,-0.9804,-0.1442,-0.0798,0.0787,-0.0379,-0.0250,0.0241,0.0028,275.1146,97.8220,8.1977,47.64565012,-122.12144126,0.25999999,
8.8670,0.1466,-0.9804,-0.1442,-0.0798,0.0787,-0.0379,-0.0250,0.0241,0.0028,275.2054,97.8368,8.1888,47.64565012,-122.12144126,0.25999999,
8.8870,0.1446,-0.9895,-0.1290,-0.0798,0.0787,-0.0379,-0.0250,0.0241,0.0028,275.2054,97.8368,8.1888,47.64565012,-122.12144126,0.25999999,
8.8970,0.1446,-0.9895,-0.1290,0.1173,0.0398,-0.1224,-0.0250,0.0241,0.0028,275.2054,97.8368,8.1888,47.64565012,-122.12144126,0.25999999,
8.9060,0.1446,-0.9895,-0.1290,0.1173,0.0398,-0.1224,-0.0250,0.0241,0.0028,275.2497,97.8335,8.1679,47.64565012,-122.12144126,0.25999999,
8.9070,0.1446,-0.9895,-0.1290,0.1173,0.0398,-0.1224,-0.0050,0.0219,0.0103,275.2497,97.8335,8.1679,47.64565012,-122.12144126,0.25999999,
8.9420,0.1446,-0.9895,-0.1290,-0.0111,0.0011,0.0943,-0.0050,0.0219,0.0103,275.2497,97.8335,8.1679,47.64565012,-122.12144126,0.25999999,
8.9460,0.1446,-0.9895,-0.1290,-0.0111,0.0011,0.0943,-0.0050,0.0219,0.0103,275.2919,97.8384,8.1424,47.64565012,-122.12144126,0.25999999,
8.9560,0.1371,-0.9845,-0.1338,-0.0111,0.0011,0.0943,-0.0050,0.0219,0.0103,275.2919,97.8384,8.1424,47.64565012,-122.12144126,0.25999999,
8.9710,0.1371,-0.9845,-0.1338,-0.0111,0.0011,0.0943,-0.0030,0.0082,0.0118,275.2919,97.8384,8.1424,47.64565012,-122.12144126,0.25999999,
8.9770,0.1371,-0.9845,-0.1338,-0.1385,0.0917,-0.0958,-0.0030,0.0082,0.0118,275.2919,97.8384,8.1424,47.64565012,-122.12144126,0.25999999,
8.9850,0.1371,-0.9845,-0.1338,-0.1385,0.0917,-0.0958,-0.0030,0.0082,0.0118,275.2883,97.8395,8.1256,47.64565012,-122.12144126,0.25999999,
9.0160,0.1371,-0.9845,-0.1338,-0.1413,-0.0865,0.0314,-0.0030,0.0082,0.0118,275.2883,97.8395,8.1256,47.64565012,-122.12144126,0.25999999,
9.0260,0.1564,-0.9837,-0.1352,-0.1413,-0.0865,0.0314,-0.0030,0.0082,0.0118,275.2883,97.8395,8.1256,47.64565012,-122.12144126,0.25999999,
9.0260,0.1564,-0.9837,-0.1352,-0.1413,-0.0865,0.0314,-0.0030,0.0082,0.0118,275.3184,97.8041,8.1053,47.64565012,-122.12144126,0.25999999,
9.0360,0.1564,-0.9837,-0.1352,-0.1413,-0.0865,0.0314,0.0165,0.0058,0.0149,275.3184,97.8041,8.1053,47.64565012,-122.12144126,0.25999999,
9.0560,0.1564,-0.9837,-0.1352,-0.2064,0.2126,0.0428,0.0165,0.0058,0.0149,275.3184,97.8041,8.1053,47.64565012,-122.12144126,0.25999999,
9.0660,0.1564,-0.9837,-0.1352,-0.2064,0.2126,0.0428,0.0165,0.0058,0.0149,275.3327,97.7309,8.0503,47.64565012,-122.12144126,0.25999999,
9.0860,0.1657,-0.9850,-0.1480,-0.2064,0.2126,0.0428,0.0165,0.0058,0.0149,275.3327,97.7309,8.0503,47.64565012,-122.12144126,0.25999999,
9.0960,0.1657,-0.9850,-0.1480,-0.4990,-0.2782,0.3888,0.0165,0.0058,0.0149,275.3327,97.7309,8.0503,47.64565012,-122.12144126,0.25999999,
9.1010,0.1657,-0.9850,-0.1480,-0.4990,-0.2782,0.3888,0.0095,0.0533,0.0404,275.3327,97.7309,8.0503,47.64565012,-122.12144126,0.25999999,
9.1050,0.1657,-0.9850,-0.1480,-0.4990,-0.2782,0.3888,0.0095,0.0533,0.0404,275.5325,97.7316,7.9919,47.64565012,-122.12144126,0.25999999,
9.1360,0.1657,-0.9850,-0.1480,-0.1047,-0.0520,-0.0239,0.0095,0.0533,0.0404,275.5325,97.7316,7.9919,47.64565012,-122.12144126,0.25999999,
9.1450,0.1657,-0.9850,-0.1480,-0.1047,-0.0520,-0.0239,0.0095,0.0533,0.0404,275.7001,97.8355,7.9505,47.64565012,-122.12144126,0.25999999,
9.1560,0.1674,-0.9687,-0.1488,-0.1047,-0.0520,-0.0239,0.0095,0.0533,0.0404,275.7001,97.8355,7.9505,47.64565012,-122.12144126,0.25999999,
9.1650,0.1674,-0.9687,-0.1488,-0.1047,-0.0520,-0.0239,-0.0590,0.0776,0.0371,275.7001,97.8355,7.9505,47.64565012,-122.12144126,0.25999999,
9.1760,0.1674,-0.9687,-0.1488,0.0217,0.1021,-0.3407,-0.0590,0.0776,0.0371,275.7001,97.8355,7.9505,47.64565012,-122.12144126,0.25999999,
9.1850,0.1674,-0.9687,-0.1488,0.0217,0.1021,-0.3407,-0.0590,0.0776,0.0371,275.9010,97.9291,7.8691,47.64565012,-122.12144126,0.25999999,
9.2160,0.1674,-0.9687,-0.1488,0.1353,-0.0488,-0.8355,-0.0590,0.0776,0.0371,275.9010,97.9291,7.8691,47.64565012,-122.12144126,0.25999999,
9.2260,0.1311,-0.9857,-0.0861,0.1353,-0.0488,-0.8355,-0.0590,0.0776,0.0371,275.9010,97.9291,7.8691,47.64565012,-122.12144126,0.25999999,
9.2260,0.1311,-0.9857,-0.0861,0.1353,-0.0488,-0.8355,-0.0590,0.0776,0.0371,275.9824,97.9070,7.7299,47.64565012,-122.12144126,0.25999999,
9.2300,0.1311,-0.9857,-0.0861,0.1353,-0.0488,-0.8355,-0.0122,0.0267,0.0640,275.9824,97.9070,7.7299,47.64565012,-122.12144126,0.25999999,
9.2560,0.1311,-0.9857,-0.0861,0.4320,0.2155,-1.0125,-0.0122,0.0267,0.0640,275.9824,97.9070,7.7299,47.64565012,-122.12144126,0.25999999,
9.2650,0.1311,-0.9857,-0.0861,0.4320,0.2155,-1.0125,-0.0122,0.0267,0.0640,275.9334,97.7256,7.4313,47.64565012,-122.12144126,0.25999999,
9.2850,0.0835,-0.9943,-0.0291,0.4320,0.2155,-1.0125,-0.0122,0.0267,0.0640,275.9334,97.7256,7.4313,47.64565012,-122.12144126,0.25999999,
9.2950,0.0835,-0.9943,-0.0291,0.4320,0.2155,-1.0125,0.0899,-0.0664,0.1719,275.9334,97.7256,7.4313,47.64565012,-122.12144126,0.25999999,
9.2960,0.0835,-0.9943,-0.0291,0.7556,-0.0259,-0.6956,0.0899,-0.0664,0.1719,275.9334,97.7256,7.4313,47.64565012,-122.12144126,0.25999999,
9.3040,0.0835,-0.9943,-0.0291,0.7556,-0.0259,-0.6956,0.0899,-0.0664,0.1719,275.8116,97.4633,6.8888,47.64565012,-122.12144126,0.25999999,
9.3350,0.0835,-0.9943,-0.0291,-0.4106,-0.0406,-0.3344,0.0899,-0.0664,0.1719,275.8116,97.4633,6.8888,47.64565012,-122.12144126,0.25999999,
9.3440,0.0835,-0.9943,-0.0291,-0.4106,-0.0406,-0.3344,0.0899,-0.0664,0.1719,275.7379,97.2033,6.1922,47.64565012,-122.12144126,0.25999999,
9.3550,0.1123,-0.9793,-0.0851,-0.4106,-0.0406,-0.3344,0.0899,-0.0664,0.1719,275.7379,97.2033,6.1922,47.64565012,-122.12144126,0.25999999,
9.3590,0.1123,-0.9793,-0.0851,-0.4106,-0.0406,-0.3344,0.1015,-0.0556,0.2957,275.7379,97.2033,6.1922,47.64565012,-122.12144126,0.25999999,
9.3740,0.1123,-0.9793,-0.0851,-0.7552,-0.2757,0.5397,0.1015,-0.0556,0.2957,275.7379,97.2033,6.1922,47.64565012,-122.12144126,0.25999999,
9.3840,0.1123,-0.9793,-0.0851,-0.7552,-0.2757,0.5397,0.1015,-0.0556,0.2957,275.8799,97.1162,5.6042,47.64565012,-122.12144126,0.25999999,
9.4140,0.1123,-0.9793,-0.0851,-0.3747,0.0663,0.1928,0.1015,-0.0556,0.2957,275.8799,97.1162,5.6042,47.64565012,-122.12144126,0.25999999,
9.4240,0.1123,-0.9793,-0.0851,-0.3747,0.0663,0.1928,0.1015,-0.0556,0.2957,275.8812,97.4746,5.1167,47.64565012,-122.12144126,0.25999999,
9.4250,0.1621,-0.9763,-0.1772,-0.3747,0.0663,0.1928,0.1015,-0.0556,0.2957,275.8812,97.4746,5.1167,47.64565012,-122.12144126,0.25999999,
9.4250,0.1621,-0.9763,-0.1772,-0.3747,0.0663,0.1928,-0.1102,-0.0013,0.2316,275.8812,97.4746,5.1167,47.64565012,-122.12144126,0.25999999,
9.4540,0.1621,-0.9763,-0.1772,-0.1586,-0.4729,-0.4854,-0.1102,-0.0013,0.2316,275.8812,97.4746,5.1167,47.64565012,-122.12144126,0.25999999,
9.4630,0.1621,-0.9763,-0.1772,-0.1586,-0.4729,-0.4854,-0.1102,-0.0013,0.2316,275.9669,98.0199,4.8389,47.64565012,-122.12144126,0.25999999,
9.4900,0.1621,-0.9763,-0.1772,-0.1586,-0.4729,-0.4854,-0.2340,0.0584,0.0652,275.9669,98.0199,4.8389,47.64565012,-122.12144126,0.25999999,
9.4940,0.1022,-0.9710,-0.0741,-0.1586,-0.4729,-0.4854,-0.2340,0.0584,0.0652,275.9669,98.0199,4.8389,47.64565012,-122.12144126,0.25999999,
9.4950,0.1022,-0.9710,-0.0741,0.4265,0.8070,-1.4657,-0.2340,0.0584,0.0652,275.9669,98.0199,4.8389,47.64565012,-122.12144126,0.25999999,
9.5030,0.1022,-0.9710,-0.0741,0.4265,0.8070,-1.4657,-0.2340,0.0584,0.0652,276.1979,98.3998,4.8920,47.64565012,-122.12144126,0.25999999,
9.5340,0.1022,-0.9710,-0.0741,1.9611,-0.1110,-0.1661,-0.2340,0.0584,0.0652,276.1979,98.3998,4.8920,47.64565012,-122.12144126,0.25999999,
9.5430,0.1022,-0.9710,-0.0741,1.9611,-0.1110,-0.1661,-0.2340,0.0584,0.0652,276.8337,98.6369,4.9169,47.64565012,-122.12144126,0.25999999,
9.5540,-0.0668,-1.0338,-0.0848,1.9611,-0.1110,-0.1661,-0.2340,0.0584,0.0652,276.8337,98.6369,4.9169,47.64565012,-122.12144126,0.25999999,
9.5550,-0.0668,-1.0338,-0.0848,1.9611,-0.1110,-0.1661,-0.1647,0.2616,0.0043,276.8337,98.6369,4.9169,47.64565012,-122.12144126,0.25999999,
9.5740,-0.0668,-1.0338,-0.0848,1.3421,0.7632,0.6671,-0.1647,0.2616,0.0043,276.8337,98.6369,4.9169,47.64565012,-122.12144126,0.25999999,
9.5830,-0.0668,-1.0338,-0.0848,1.3421,0.7632,0.6671,-0.1647,0.2616,0.0043,277.4623,99.2724,4.7408,47.64565012,-122.12144126,0.25999999,
9.6140,-0.0668,-1.0338,-0.0848,-0.4756,-0.4298,0.6346,-0.1647,0.2616,0.0043,277.4623,99.2724,4.7408,47.64565012,-122.12144126,0.25999999,
9.6180,-0.0668,-1.0338,-0.0848,-0.4756,-0.4298,0.6346,-0.4294,0.2546,0.1560,277.4623,99.2724,4.7408,47.64565012,-122.12144126,0.25999999,
9.6230,-0.0668,-1.0338,-0.0848,-0.4756,-0.4298,0.6346,-0.4294,0.2546,0.1560,278.1093,100.3845,4.4343,47.64565012,-122.12144126,0.25999999,
9.6240,0.0250,-1.0169,-0.2373,-0.4756,-0.4298,0.6346,-0.4294,0.2546,0.1560,278.1093,100.3845,4.4343,47.64565012,-122.12144126,0.25999999,
9.6560,0.0250,-1.0169,-0.2373,0.4179,-0.8761,-0.7587,-0.4294,0.2546,0.1560,278.1093,100.3845,4.4343,47.64565012,-122.12144126,0.25999999,
9.6630,0.0250,-1.0169,-0.2373,0.4179,-0.8761,-0.7587,-0.4294,0.2546,0.1560,278.7164,101.7651,4.4426,47.64565012,-122.12144126,0.25999999,
9.6830,0.0250,-1.0169,-0.2373,0.4179,-0.8761,-0.7587,-0.6223,0.2301,0.0101,278.7164,101.7651,4.4426,47.64565012,-122.12144126,0.25999999,
9.6970,0.0076,-0.9085,-0.1154,0.4179,-0.8761,-0.7587,-0.6223,0.2301,0.0101,278.7164,101.7651,4.4426,47.64565012,-122.12144126,0.25999999,
9.6980,0.0076,-0.9085,-0.1154,1.9091,0.0193,-1.6190,-0.6223,0.2301,0.0101,278.7164,101.7651,4.4426,47.64565012,-122.12144126,0.25999999,
9.7020,0.0076,-0.9085,-0.1154,1.9091,0.0193,-1.6190,-0.6223,0.2301,0.0101,279.0470,103.0056,4.5156,47.64565012,-122.12144126,0.25999999,
9.7330,0.0076,-0.9085,-0.1154,0.6586,-0.2791,-1.8950,-0.6223,0.2301,0.0101,279.0470,103.0056,4.5156,47.64565012,-122.12144126,0.25999999,
9.7420,0.0076,-0.9085,-0.1154,0.6586,-0.2791,-1.8950,-0.6223,0.2301,0.0101,279.6106,104.0272,4.5334,47.64565012,-122.12144126,0.25999999,
9.7470,0.0076,-0.9085,-0.1154,0.6586,-0.2791,-1.8950,-0.5171,0.2493,0.0234,279.6106,104.0272,4.5334,47.64565012,-122.12144126,0.25999999,
9.7520,-0.0239,-0.9502,-0.0473,0.6586,-0.2791,-1.8950,-0.5171,0.2493,0.0234,279.6106,104.0272,4.5334,47.64565012,-122.12144126,0.25999999,
9.7730,-0.0239,-0.9502,-0.0473,0.0740,-0.1071,-0.3029,-0.5171,0.2493,0.0234,279.6106,104.0272,4.5334,47.64565012,-122.12144126,0.25999999,
9.7820,-0.0239,-0.9502,-0.0473,0.0740,-0.1071,-0.3029,-0.5171,0.2493,0.0234,280.7242,105.1935,4.8364,47.64565012,-122.12144126,0.25999999,
9.8120,-0.0239,-0.9502,-0.0473,0.5060,-0.0367,0.8724,-0.5171,0.2493,0.0234,280.7242,105.1935,4.8364,47.64565012,-122.12144126,0.25999999,
9.8140,-0.0239,-0.9502,-0.0473,0.5060,-0.0367,0.8724,-0.7672,0.5379,-0.0796,280.7242,105.1935,4.8364,47.64565012,-122.12144126,0.25999999,
9.8220,-0.0239,-0.9502,-0.0473,0.5060,-0.0367,0.8724,-0.7672,0.5379,-0.0796,281.8098,107.2954,5.4469,47.64565012,-122.12144126,0.25999999,
9.8230,0.0619,-0.9556,-0.3049,0.5060,-0.0367,0.8724,-0.7672,0.5379,-0.0796,281.8098,107.2954,5.4469,47.64565012,-122.12144126,0.25999999,
9.8520,0.0619,-0.9556,-0.3049,0.3783,1.7237,-3.7124,-0.7672,0.5379,-0.0796,281.8098,107.2954,5.4469,47.64565012,-122.12144126,0.25999999,
9.8610,0.0619,-0.9556,-0.3049,0.3783,1.7237,-3.7124,-0.7672,0.5379,-0.0796,282.3069,109.4742,6.1477,47.64565012,-122.12144126,0.25999999,
9.8770,0.0619,-0.9556,-0.3049,0.3783,1.7237,-3.7124,-0.9523,0.4960,-0.1958,282.3069,109.4742,6.1477,47.64565012,-122.12144126,0.25999999,
9.8920,0.0619,-0.9556,-0.3049,1.5562,3.0576,-2.5889,-0.9523,0.4960,-0.1958,282.3069,109.4742,6.1477,47.64565012,-122.12144126,0.25999999,
9.8930,0.0410,-1.1233,-0.0547,1.5562,3.0576,-2.5889,-0.9523,0.4960,-0.1958,282.3069,109.4742,6.1477,47.64565012,-122.12144126,0.25999999,
9.9010,0.0410,-1.1233,-0.0547,1.5562,3.0576,-2.5889,-0.9523,0.4960,-0.1958,284.4596,110.7058,7.0451,47.64565012,-122.12144126,0.25999999,
9.9320,0.0410,-1.1233,-0.0547,2.8393,3.7110,-6.8731,-0.9523,0.4960,-0.1958,284.4596,110.7058,7.0451,47.64565012,-122.12144126,0.25999999,
9.9410,0.0410,-1.1233,-0.0547,2.8393,3.7110,-6.8731,-0.3990,0.8230,-0.0876,284.4596,110.7058,7.0451,47.64565012,-122.12144126,0.25999999,
9.9430,0.0410,-1.1233,-0.0547,2.8393,3.7110,-6.8731,-0.3990,0.8230,-0.0876,285.8486,111.1020,7.7668,47.64565012,-122.12144126,0.25999999,
9.9510,-0.1411,-1.3049,0.0918,2.8393,3.7110,-6.8731,-0.3990,0.8230,-0.0876,285.8486,111.1020,7.7668,47.64565012,-122.12144126,0.25999999,
9.9730,-0.1411,-1.3049,0.0918,5.0450,5.9955,-3.8763,-0.3990,0.8230,-0.0876,285.8486,111.1020,7.7668,47.64565012,-122.12144126,0.25999999,
9.9810,-0.1411,-1.3049,0.0918,5.0450,5.9955,-3.8763,-0.3990,0.8230,-0.0876,287.5021,109.4893,8.1745,47.64565012,-122.12144126,0.25999999,
10.0060,-0.1411,-1.3049,0.0918,5.0450,5.9955,-3.8763,1.0424,0.4281,0.0932,287.5021,109.4893,8.1745,47.64565012,-122.12144126,0.25999999,
10.0110,-0.1411,-1.3049,0.0918,0.4436,3.4274,-6.6420,1.0424,0.4281,0.0932,287.5021,109.4893,8.1745,47.64565012,-122.12144126,0.25999999,
10.0210,-0.1411,-1.3049,0.0918,0.4436,3.4274,-6.6420,1.0424,0.4281,0.0932,287.5717,105.1104,7.8579,47.64565012,-122.12144126,0.25999999,
10.0220,-0.1465,-1.4303,0.2321,0.4436,3.4274,-6.6420,1.0424,0.4281,0.0932,287.5717,105.1104,7.8579,47.64565012,-122.12144126,0.25999999,
10.0510,-0.1465,-1.4303,0.2321,-1.1171,3.2992,-3.6924,1.0424,0.4281,0.0932,287.5717,105.1104,7.8579,47.64565012,-122.12144126,0.25999999,
10.0600,-0.1465,-1.4303,0.2321,-1.1171,3.2992,-3.6924,1.0424,0.4281,0.0932,286.7862,97.2332,7.4973,47.64565012,-122.12144126,0.25999999,
10.0700,-0.1465,-1.4303,0.2321,-1.1171,3.2992,-3.6924,3.3618,-0.4043,0.0936,286.7862,97.2332,7.4973,47.64565012,-122.12144126,0.25999999,
10.0910,0.2354,-1.3279,-0.1055,-1.1171,3.2992,-3.6924,3.3618,-0.4043,0.0936,286.7862,97.2332,7.4973,47.64565012,-122.12144126,0.25999999,
10.0920,0.2354,-1.3279,-0.1055,-0.6239,4.8801,7.5771,3.3618,-0.4043,0.0936,286.7862,97.2332,7.4973,47.64565012,-122.12144126,0.25999999,
10.1020,0.2354,-1.3279,-0.1055,-0.6239,4.8801,7.5771,3.3618,-0.4043,0.0936,284.5831,90.1317,7.2751,47.64565012,-122.12144126,0.25999999,
10.1310,0.2354,-1.3279,-0.1055,1.5366,2.5999,-0.0291,3.3618,-0.4043,0.0936,284.5831,90.1317,7.2751,47.64565012,-122.12144126,0.25999999,
10.1360,0.2354,-1.3279,-0.1055,1.5366,2.5999,-0.0291,2.6624,-1.6437,0.0155,284.5831,90.1317,7.2751,47.64565012,-122.12144126,0.25999999,
10.1400,0.2354,-1.3279,-0.1055,1.5366,2.5999,-0.0291,2.6624,-1.6437,0.0155,280.1550,85.2666,7.3856,47.64565012,-122.12144126,0.25999999,
10.1500,0.0202,-1.3788,-0.1770,1.5366,2.5999,-0.0291,2.6624,-1.6437,0.0155,280.1550,85.2666,7.3856,47.64565012,-122.12144126,0.25999999,
10.1700,0.0202,-1.3788,-0.1770,0.8631,2.8011,4.0731,2.6624,-1.6437,0.0155,280.1550,85.2666,7.3856,47.64565012,-122.12144126,0.25999999,
10.1800,0.0202,-1.3788,-0.1770,0.8631,2.8011,4.0731,2.6624,-1.6437,0.0155,277.4489,78.8661,7.5557,47.64565012,-122.12144126,0.25999999,
10.2000,0.0202,-1.3788,-0.1770,0.8631,2.8011,4.0731,3.0422,-1.4894,0.1525,277.4489,78.8661,7.5557,47.64565012,-122.12144126,0.25999999,
10.2100,0.0202,-1.3788,-0.1770,0.8391,-2.2316,5.8614,3.0422,-1.4894,0.1525,277.4489,78.8661,7.5557,47.64565012,-122.12144126,0.25999999,
10.2200,0.0202,-1.3788,-0.1770,0.8391,-2.2316,5.8614,3.0422,-1.4894,0.1525,272.6439,72.7814,7.9833,47.64565012,-122.12144126,0.25999999,
10.2210,0.0697,-1.0004,-0.2684,0.8391,-2.2316,5.8614,3.0422,-1.4894,0.1525,272.6439,72.7814,7.9833,47.64565012,-122.12144126,0.25999999,
10.2500,0.0697,-1.0004,-0.2684,-0.3925,-3.5485,5.2471,3.0422,-1.4894,0.1525,272.6439,72.7814,7.9833,47.64565012,-122.12144126,0.25999999,
10.2600,0.0697,-1.0004,-0.2684,-0.3925,-3.5485,5.2471,3.0422,-1.4894,0.1525,268.1141,68.2208,8.0856,47.64565012,-122.12144126,0.25999999,
10.2650,0.0697,-1.0004,-0.2684,-0.3925,-3.5485,5.2471,2.4353,-1.9024,0.5749,268.1141,68.2208,8.0856,47.64565012,-122.12144126,0.25999999,
10.2910,0.1803,-0.5306,-0.1775,-0.3925,-3.5485,5.2471,2.4353,-1.9024,0.5749,268.1141,68.2208,8.0856,47.64565012,-122.12144126,0.25999999,
10.2920,0.1803,-0.5306,-0.1775,-0.7551,-4.5689,4.6576,2.4353,-1.9024,0.5749,268.1141,68.2208,8.0856,47.64565012,-122.12144126,0.25999999,
10.2990,0.1803,-0.5306,-0.1775,-0.7551,-4.5689,4.6576,2.4353,-1.9024,0.5749,264.2646,65.5785,8.5750,47.64565012,-122.12144126,0.25999999,
10.3300,0.1803,-0.5306,-0.1775,-0.7551,-4.5689,4.6576,1.0815,-1.1816,0.5602,264.2646,65.5785,8.5750,47.64565012,-122.12144126,0.25999999,
10.3310,0.1803,-0.5306,-0.1775,0.3535,-4.6079,3.8303,1.0815,-1.1816,0.5602,264.2646,65.5785,8.5750,47.64565012,-122.12144126,0.25999999,
10.3400,0.1803,-0.5306,-0.1775,0.3535,-4.6079,3.8303,1.0815,-1.1816,0.5602,261.8744,64.4092,8.1049,47.64565012,-122.12144126,0.25999999,
10.3600,0.1152,-0.4358,0.0104,0.3535,-4.6079,3.8303,1.0815,-1.1816,0.5602,261.8744,64.4092,8.1049,47.64565012,-122.12144126,0.25999999,
10.3690,0.1152,-0.4358,0.0104,1.5552,-4.9795,2.6588,1.0815,-1.1816,0.5602,261.8744,64.4092,8.1049,47.64565012,-122.12144126,0.25999999,
10.3790,0.1152,-0.4358,0.0104,1.5552,-4.9795,2.6588,1.0815,-1.1816,0.5602,260.5224,65.8146,5.9892,47.64565012,-122.12144126,0.25999999,
10.3950,0.1152,-0.4358,0.0104,1.5552,-4.9795,2.6588,-0.8112,-0.2497,1.0663,260.5224,65.8146,5.9892,47.64565012,-122.12144126,0.25999999,
10.4090,0.1152,-0.4358,0.0104,0.0223,-3.7907,-2.1124,-0.8112,-0.2497,1.0663,260.5224,65.8146,5.9892,47.64565012,-122.12144126,0.25999999,
10.4190,0.1152,-0.4358,0.0104,0.0223,-3.7907,-2.1124,-0.8112,-0.2497,1.0663,258.3606,69.8684,4.2192,47.64565012,-122.12144126,0.25999999,
10.4200,0.0231,-0.4681,0.3551,0.0223,-3.7907,-2.1124,-0.8112,-0.2497,1.0663,258.3606,69.8684,4.2192,47.64565012,-122.12144126,0.25999999,
10.4500,0.0231,-0.4681,0.3551,-1.0428,6.8288,-10.1011,-0.8112,-0.2497,1.0663,258.3606,69.8684,4.2192,47.64565012,-122.12144126,0.25999999,
10.4620,0.0231,-0.4681,0.3551,-1.0428,6.8288,-10.1011,-1.4645,-0.5776,0.5716,258.3606,69.8684,4.2192,47.64565012,-122.12144126,0.25999999,
10.4630,0.0231,-0.4681,0.3551,-1.0428,6.8288,-10.1011,-1.4645,-0.5776,0.5716,256.8291,72.9496,3.7023,47.64565012,-122.12144126,0.25999999,
10.4900,0.2554,-1.6979,0.9908,-1.0428,6.8288,-10.1011,-1.4645,-0.5776,0.5716,256.8291,72.9496,3.7023,47.64565012,-122.12144126,0.25999999,
10.4910,0.2554,-1.6979,0.9908,-3.3171,6.4498,-1.3932,-1.4645,-0.5776,0.5716,256.8291,72.9496,3.7023,47.64565012,-122.12144126,0.25999999,
10.4990,0.2554,-1.6979,0.9908,-3.3171,6.4498,-1.3932,-1.4645,-0.5776,0.5716,255.2894,72.6556,4.8096,47.64565012,-122.12144126,0.25999999,
10.5240,0.2554,-1.6979,0.9908,-3.3171,6.4498,-1.3932,0.4986,-1.5199,-0.2965,255.2894,72.6556,4.8096,47.64565012,-122.12144126,0.25999999,
10.5280,0.2554,-1.6979,0.9908,-8.0701,3.2074,3.2935,0.4986,-1.5199,-0.2965,255.2894,72.6556,4.8096,47.64565012,-122.12144126,0.25999999,
10.5390,0.2554,-1.6979,0.9908,-8.0701,3.2074,3.2935,0.4986,-1.5199,-0.2965,251.0396,72.0223,7.4186,47.64565012,-122.12144126,0.25999999,
10.5590,0.6089,-1.1388,0.2298,-8.0701,3.2074,3.2935,0.4986,-1.5199,-0.2965,251.0396,72.0223,7.4186,47.64565012,-122.12144126,0.25999999,
10.5680,0.6089,-1.1388,0.2298,-2.9250,-6.4206,9.6124,0.4986,-1.5199,-0.2965,251.0396,72.0223,7.4186,47.64565012,-122.12144126,0.25999999,
10.5790,0.6089,-1.1388,0.2298,-2.9250,-6.4206,9.6124,0.4986,-1.5199,-0.2965,253.9121,72.3495,6.3536,47.64565012,-122.12144126,0.25999999,
10.5880,0.6089,-1.1388,0.2298,-2.9250,-6.4206,9.6124,-0.4165,0.8357,-0.0749,253.9121,72.3495,6.3536,47.64565012,-122.12144126,0.25999999,
10.6090,0.6089,-1.1388,0.2298,3.1029,-1.3414,6.0913,-0.4165,0.8357,-0.0749,253.9121,72.3495,6.3536,47.64565012,-122.12144126,0.25999999,
10.6190,0.6089,-1.1388,0.2298,3.1029,-1.3414,6.0913,-0.4165,0.8357,-0.0749,256.9406,75.6491,5.6423,47.64565012,-122.12144126,0.25999999,
10.6200,0.0373,-0.5277,-0.3407,3.1029,-1.3414,6.0913,-0.4165,0.8357,-0.0749,256.9406,75.6491,5.6423,47.64565012,-122.12144126,0.25999999,
10.6490,0.0373,-0.5277,-0.3407,4.3097,6.1095,4.8992,-0.4165,0.8357,-0.0749,256.9406,75.6491,5.6423,47.64565012,-122.12144126,0.25999999,
10.6540,0.0373,-0.5277,-0.3407,4.3097,6.1095,4.8992,-1.9696,2.0338,0.1626,256.9406,75.6491,5.6423,47.64565012,-122.12144126,0.25999999,
10.6580,0.0373,-0.5277,-0.3407,4.3097,6.1095,4.8992,-1.9696,2.0338,0.1626,262.0042,80.2875,3.7043,47.64565012,-122.12144126,0.25999999,
10.6880,-0.1653,-1.3241,-0.1177,4.3097,6.1095,4.8992,-1.9696,2.0338,0.1626,262.0042,80.2875,3.7043,47.64565012,-122.12144126,0.25999999,
10.6900,-0.1653,-1.3241,-0.1177,-2.4814,-1.6308,0.3279,-1.9696,2.0338,0.1626,262.0042,80.2875,3.7043,47.64565012,-122.12144126,0.25999999,
10.6980,-0.1653,-1.3241,-0.1177,-2.4814,-1.6308,0.3279,-1.9696,2.0338,0.1626,265.7692,83.7229,2.7851,47.64565012,-122.12144126,0.25999999,
10.7190,-0.1653,-1.3241,-0.1177,-2.4814,-1.6308,0.3279,-1.6087,1.7362,0.1982,265.7692,83.7229,2.7851,47.64565012,-122.12144126,0.25999999,
10.7290,-0.1653,-1.3241,-0.1177,-1.9969,-2.1991,2.6895,-1.6087,1.7362,0.1982,265.7692,83.7229,2.7851,47.64565012,-122.12144126,0.25999999,
10.7380,-0.1653,-1.3241,-0.1177,-1.9969,-2.1991,2.6895,-1.6087,1.7362,0.1982,269.9229,87.5380,2.1415,47.64565012,-122.12144126,0.25999999,
10.7590,0.2501,-0.7915,-0.1275,-1.9969,-2.1991,2.6895,-1.6087,1.7362,0.1982,269.9229,87.5380,2.1415,47.64565012,-122.12144126,0.25999999,
10.7690,0.2501,-0.7915,-0.1275,2.9556,1.1795,2.7323,-1.6087,1.7362,0.1982,269.9229,87.5380,2.1415,47.64565012,-122.12144126,0.25999999,
10.7780,0.2501,-0.7915,-0.1275,2.9556,1.1795,2.7323,-1.6087,1.7362,0.1982,273.0100,91.6431,2.4584,47.64565012,-122.12144126,0.25999999,
10.7820,0.2501,-0.7915,-0.1275,2.9556,1.1795,2.7323,-1.7883,1.4315,-0.0921,273.0100,91.6431,2.4584,47.64565012,-122.12144126,0.25999999,
10.8100,0.2501,-0.7915,-0.1275,3.3016,-0.3025,-0.6149,-1.7883,1.4315,-0.0921,273.0100,91.6431,2.4584,47.64565012,-122.12144126,0.25999999,
10.8180,-0.2854,-1.0472,-0.1218,3.3016,-0.3025,-0.6149,-1.7883,1.4315,-0.0921,273.0100,91.6431,2.4584,47.64565012,-122.12144126,0.25999999,
10.8190,-0.2854,-1.0472,-0.1218,3.3016,-0.3025,-0.6149,-1.7883,1.4315,-0.0921,275.1974,94.7665,2.5334,47.64565012,-122.12144126,0.25999999,
10.8480,-0.2854,-1.0472,-0.1218,3.3016,-0.3025,-0.6149,-1.1538,1.0648,-0.0758,275.1974,94.7665,2.5334,47.64565012,-122.12144126,0.25999999,
10.8490,-0.2854,-1.0472,-0.1218,0.3695,-0.3501,0.5422,-1.1538,1.0648,-0.0758,275.1974,94.7665,2.5334,47.64565012,-122.12144126,0.25999999,
10.8580,-0.2854,-1.0472,-0.1218,0.3695,-0.3501,0.5422,-1.1538,1.0648,-0.0758,277.7717,96.9703,3.1145,47.64565012,-122.12144126,0.25999999,
10.8880,-0.2854,-1.0472,-0.1218,-0.0581,-1.2016,0.1998,-1.1538,1.0648,-0.0758,277.7717,96.9703,3.1145,47.64565012,-122.12144126,0.25999999,
10.8890,0.0136,-0.9342,-0.1608,-0.0581,-1.2016,0.1998,-1.1538,1.0648,-0.0758,277.7717,96.9703,3.1145,47.64565012,-122.12144126,0.25999999,
