
time,gFx,gFy,gFz,ax,ay,az,wx,wy,wz,p,Azimuth,Pitch,Roll,Latitude,Longitude,Speed (m/s),
0.0390,0.1001,0.3183,0.9365,0.0000,0.0000,0.0000,0.0000,0.0000,0.0000,0.0000,0.0000,0.0000,0.0000,0.00000000,0.00000000,0.00000000,
0.0890,0.1001,0.3183,0.9365,0.1429,0.0496,0.2154,0.0000,0.0000,0.0000,0.0000,0.0000,0.0000,0.0000,47.63969314,-122.12273972,0.89999998,
0.0900,0.1034,0.3437,0.9663,0.1429,0.0496,0.2154,0.0000,0.0000,0.0000,0.0000,0.0000,0.0000,0.0000,47.63969314,-122.12273972,0.89999998,
0.1040,0.1034,0.3437,0.9663,0.1429,0.0496,0.2154,0.2838,0.1733,0.0328,0.0000,0.0000,0.0000,0.0000,47.63969314,-122.12273972,0.89999998,
0.1080,0.1034,0.3437,0.9663,0.1429,0.0496,0.2154,0.2838,0.1733,0.0328,0.0000,333.3321,-19.8587,5.5137,47.63969314,-122.12273972,0.89999998,
0.1180,0.1034,0.3437,0.9663,0.1429,0.0496,0.2154,0.2838,0.1733,0.0328,1009.7327,333.3321,-19.8587,5.5137,47.63969314,-122.12273972,0.89999998,
0.1290,0.1034,0.3437,0.9663,0.1967,-0.0985,-0.8993,0.2838,0.1733,0.0328,1009.7327,333.3321,-19.8587,5.5137,47.63969314,-122.12273972,0.89999998,
0.1490,0.1034,0.3437,0.9663,0.1967,-0.0985,-0.8993,0.2838,0.1733,0.0328,1009.7327,333.5283,-19.3998,4.9585,47.63969314,-122.12273972,0.89999998,
0.1590,0.0479,0.3505,1.0005,0.1967,-0.0985,-0.8993,0.2838,0.1733,0.0328,1009.7327,333.5283,-19.3998,4.9585,47.63969314,-122.12273972,0.89999998,
0.1590,0.0479,0.3505,1.0005,0.1967,-0.0985,-0.8993,0.2838,0.1733,0.0328,1009.7468,333.5283,-19.3998,4.9585,47.63969314,-122.12273972,0.89999998,
0.1690,0.0479,0.3505,1.0005,0.1967,-0.0985,-0.8993,-0.2878,0.3471,-0.1579,1009.7468,333.5283,-19.3998,4.9585,47.63969314,-122.12273972,0.89999998,
0.1690,0.0479,0.3505,1.0005,1.0037,-0.0310,-0.8214,-0.2878,0.3471,-0.1579,1009.7468,333.5283,-19.3998,4.9585,47.63969314,-122.12273972,0.89999998,
0.1880,0.0479,0.3505,1.0005,1.0037,-0.0310,-0.8214,-0.2878,0.3471,-0.1579,1009.7468,333.3300,-18.4339,3.5859,47.63969314,-122.12273972,0.89999998,
0.2080,0.0479,0.3505,1.0005,1.2934,1.0144,-2.6290,-0.2878,0.3471,-0.1579,1009.7468,333.3300,-18.4339,3.5859,47.63969314,-122.12273972,0.89999998,
0.2290,-0.0738,0.2627,1.1398,1.2934,1.0144,-2.6290,-0.2878,0.3471,-0.1579,1009.7468,333.3300,-18.4339,3.5859,47.63969314,-122.12273972,0.89999998,
0.2290,-0.0738,0.2627,1.1398,1.2934,1.0144,-2.6290,-0.2878,0.3471,-0.1579,1009.7468,332.7145,-17.6170,2.6431,47.63969314,-122.12273972,0.89999998,
0.2330,-0.0738,0.2627,1.1398,1.2934,1.0144,-2.6290,-0.3558,0.4697,0.1001,1009.7468,332.7145,-17.6170,2.6431,47.63969314,-122.12273972,0.89999998,
0.2380,-0.0738,0.2627,1.1398,1.2934,1.0144,-2.6290,-0.3558,0.4697,0.1001,1009.6461,332.7145,-17.6170,2.6431,47.63969314,-122.12273972,0.89999998,
0.2480,-0.0738,0.2627,1.1398,0.9349,0.9769,-2.1943,-0.3558,0.4697,0.1001,1009.6461,332.7145,-17.6170,2.6431,47.63969314,-122.12273972,0.89999998,
0.2680,-0.0738,0.2627,1.1398,0.9349,0.9769,-2.1943,-0.3558,0.4697,0.1001,1009.6461,332.2683,-16.9710,2.5683,47.63969314,-122.12273972,0.89999998,
0.2880,-0.0738,0.2627,1.1398,0.7955,1.3949,0.3488,-0.3558,0.4697,0.1001,1009.6461,332.2683,-16.9710,2.5683,47.63969314,-122.12273972,0.89999998,
0.2980,-0.0536,0.1727,1.0948,0.7955,1.3949,0.3488,-0.3558,0.4697,0.1001,1009.6461,332.2683,-16.9710,2.5683,47.63969314,-122.12273972,0.89999998,
0.2990,-0.0536,0.1727,1.0948,0.7955,1.3949,0.3488,-0.2516,0.1940,0.1268,1009.6461,332.2683,-16.9710,2.5683,47.63969314,-122.12273972,0.89999998,
0.3080,-0.0536,0.1727,1.0948,0.7955,1.3949,0.3488,-0.2516,0.1940,0.1268,1009.6461,331.8186,-16.3846,1.8670,47.63969314,-122.12273972,0.89999998,
0.3180,-0.0536,0.1727,1.0948,0.7955,1.3949,0.3488,-0.2516,0.1940,0.1268,1009.7294,331.8186,-16.3846,1.8670,47.63969314,-122.12273972,0.89999998,
0.3280,-0.0536,0.1727,1.0948,1.2043,1.7588,1.1345,-0.2516,0.1940,0.1268,1009.7294,331.8186,-16.3846,1.8670,47.63969314,-122.12273972,0.89999998,
0.3480,-0.0536,0.1727,1.0948,1.2043,1.7588,1.1345,-0.2516,0.1940,0.1268,1009.7294,331.0871,-15.7153,1.1391,47.63969314,-122.12273972,0.89999998,
0.3580,-0.0857,0.0846,0.8730,1.2043,1.7588,1.1345,-0.2516,0.1940,0.1268,1009.7294,331.0871,-15.7153,1.1391,47.63969314,-122.12273972,0.89999998,
0.3580,-0.0857,0.0846,0.8730,1.2043,1.7588,1.1345,-0.2516,0.1940,0.1268,1009.5188,331.0871,-15.7153,1.1391,47.63969314,-122.12273972,0.89999998,
0.3620,-0.0857,0.0846,0.8730,1.2043,1.7588,1.1345,-0.2707,0.3292,0.2344,1009.5188,331.0871,-15.7153,1.1391,47.63969314,-122.12273972,0.89999998,
0.3680,-0.0857,0.0846,0.8730,0.6385,2.3758,-0.5278,-0.2707,0.3292,0.2344,1009.5188,331.0871,-15.7153,1.1391,47.63969314,-122.12273972,0.89999998,
0.3890,-0.0857,0.0846,0.8730,0.6385,2.3758,-0.5278,-0.2707,0.3292,0.2344,1009.5188,330.3737,-15.0595,1.1684,47.63969314,-122.12273972,0.89999998,
0.4080,-0.0857,0.0846,0.8730,-0.3988,2.4489,-0.2706,-0.2707,0.3292,0.2344,1009.5188,330.3737,-15.0595,1.1684,47.63969314,-122.12273972,0.89999998,
0.4280,0.0240,0.0088,1.0093,-0.3988,2.4489,-0.2706,-0.2707,0.3292,0.2344,1009.5188,330.3737,-15.0595,1.1684,47.63969314,-122.12273972,0.89999998,
0.4290,0.0240,0.0088,1.0093,-0.3988,2.4489,-0.2706,-0.4566,-0.3226,0.2295,1009.5188,330.3737,-15.0595,1.1684,47.63969314,-122.12273972,0.89999998,
0.4290,0.0240,0.0088,1.0093,-0.3988,2.4489,-0.2706,-0.4566,-0.3226,0.2295,1009.5188,330.1409,-13.8851,2.2219,47.63969314,-122.12273972,0.89999998,
0.4380,0.0240,0.0088,1.0093,-0.3988,2.4489,-0.2706,-0.4566,-0.3226,0.2295,1009.5762,330.1409,-13.8851,2.2219,47.63969314,-122.12273972,0.89999998,
0.4480,0.0240,0.0088,1.0093,-1.3743,1.6986,0.8104,-0.4566,-0.3226,0.2295,1009.5762,330.1409,-13.8851,2.2219,47.63969314,-122.12273972,0.89999998,
0.4680,0.0240,0.0088,1.0093,-1.3743,1.6986,0.8104,-0.4566,-0.3226,0.2295,1009.5762,330.9463,-12.6093,3.7655,47.63969314,-122.12273972,0.89999998,
0.4880,0.0240,0.0088,1.0093,-1.4662,1.0714,1.4584,-0.4566,-0.3226,0.2295,1009.5762,330.9463,-12.6093,3.7655,47.63969314,-122.12273972,0.89999998,
0.4920,0.0240,0.0088,1.0093,-1.4662,1.0714,1.4584,-0.5670,-0.6343,-0.3179,1009.5762,330.9463,-12.6093,3.7655,47.63969314,-122.12273972,0.89999998,
0.4970,0.1922,0.0641,0.8862,-1.4662,1.0714,1.4584,-0.5670,-0.6343,-0.3179,1009.5762,330.9463,-12.6093,3.7655,47.63969314,-122.12273972,0.89999998,
0.5080,0.1922,0.0641,0.8862,-1.4662,1.0714,1.4584,-0.5670,-0.6343,-0.3179,1009.5762,332.2576,-11.4154,4.7825,47.63969314,-122.12273972,0.89999998,
0.5180,0.1922,0.0641,0.8862,-1.4662,1.0714,1.4584,-0.5670,-0.6343,-0.3179,1009.6265,332.2576,-11.4154,4.7825,47.63969314,-122.12273972,0.89999998,
0.5280,0.1922,0.0641,0.8862,-1.7185,0.5585,0.0735,-0.5670,-0.6343,-0.3179,1009.6265,332.2576,-11.4154,4.7825,47.63969314,-122.12273972,0.89999998,
0.5480,0.1922,0.0641,0.8862,-1.7185,0.5585,0.0735,-0.5670,-0.6343,-0.3179,1009.6265,333.7513,-10.5330,5.2899,47.63969314,-122.12273972,0.89999998,
0.5580,0.2540,0.1263,0.9006,-1.7185,0.5585,0.0735,-0.5670,-0.6343,-0.3179,1009.6265,333.7513,-10.5330,5.2899,47.63969314,-122.12273972,0.89999998,
0.5590,0.2540,0.1263,0.9006,-1.7185,0.5585,0.0735,-0.5670,-0.6343,-0.3179,1009.7908,333.7513,-10.5330,5.2899,47.63969314,-122.12273972,0.89999998,
0.5590,0.2540,0.1263,0.9006,-1.7185,0.5585,0.0735,-0.4077,-0.3935,-0.5980,1009.7908,333.7513,-10.5330,5.2899,47.63969314,-122.12273972,0.89999998,
0.5670,0.2540,0.1263,0.9006,-0.4924,0.8651,1.9328,-0.4077,-0.3935,-0.5980,1009.7908,333.7513,-10.5330,5.2899,47.63969314,-122.12273972,0.89999998,
0.5870,0.2540,0.1263,0.9006,-0.4924,0.8651,1.9328,-0.4077,-0.3935,-0.5980,1009.7908,335.5050,-10.5653,6.4201,47.63969314,-122.12273972,0.89999998,
0.6090,0.2540,0.1263,0.9006,1.2797,-0.5035,1.2571,-0.4077,-0.3935,-0.5980,1009.7908,335.5050,-10.5653,6.4201,47.63969314,-122.12273972,0.89999998,
0.6210,0.2540,0.1263,0.9006,1.2797,-0.5035,1.2571,-0.0278,-0.7771,-0.5347,1009.7908,335.5050,-10.5653,6.4201,47.63969314,-122.12273972,0.89999998,
0.6270,0.0456,0.1384,0.8181,1.2797,-0.5035,1.2571,-0.0278,-0.7771,-0.5347,1009.7908,335.5050,-10.5653,6.4201,47.63969314,-122.12273972,0.89999998,
0.6270,0.0456,0.1384,0.8181,1.2797,-0.5035,1.2571,-0.0278,-0.7771,-0.5347,1009.7908,336.8358,-10.6127,7.9802,47.63969314,-122.12273972,0.89999998,
0.6380,0.0456,0.1384,0.8181,1.2797,-0.5035,1.2571,-0.0278,-0.7771,-0.5347,1009.9664,336.8358,-10.6127,7.9802,47.63969314,-122.12273972,0.89999998,
0.6470,0.0456,0.1384,0.8181,1.0448,0.2375,2.1696,-0.0278,-0.7771,-0.5347,1009.9664,336.8358,-10.6127,7.9802,47.63969314,-122.12273972,0.89999998,
0.6670,0.0456,0.1384,0.8181,1.0448,0.2375,2.1696,-0.0278,-0.7771,-0.5347,1009.9664,338.2140,-10.4094,9.3101,47.63969314,-122.12273972,0.89999998,
0.6870,0.0456,0.1384,0.8181,1.0448,0.2375,2.1696,-0.1260,-1.0587,-0.3060,1009.9664,338.2140,-10.4094,9.3101,47.63969314,-122.12273972,0.89999998,
0.6870,0.0456,0.1384,0.8181,-0.3461,-0.5193,-0.0332,-0.1260,-1.0587,-0.3060,1009.9664,338.2140,-10.4094,9.3101,47.63969314,-122.12273972,0.89999998,
0.6960,0.0888,0.1633,0.8317,-0.3461,-0.5193,-0.0332,-0.1260,-1.0587,-0.3060,1009.9664,338.2140,-10.4094,9.3101,47.63969314,-122.12273972,0.89999998,
0.7060,0.0888,0.1633,0.8317,-0.3461,-0.5193,-0.0332,-0.1260,-1.0587,-0.3060,1009.9664,338.8179,-10.2948,12.6383,47.63969314,-122.12273972,0.89999998,
0.7180,0.0888,0.1633,0.8317,-0.3461,-0.5193,-0.0332,-0.1260,-1.0587,-0.3060,1009.5174,338.8179,-10.2948,12.6383,47.63969314,-122.12273972,0.89999998,
0.7260,0.0888,0.1633,0.8317,4.8143,-0.0919,-1.4423,-0.1260,-1.0587,-0.3060,1009.5174,338.8179,-10.2948,12.6383,47.63969314,-122.12273972,0.89999998,
0.7460,0.0888,0.1633,0.8317,4.8143,-0.0919,-1.4423,-0.1260,-1.0587,-0.3060,1009.5174,340.0452,-10.1322,14.7910,47.63969314,-122.12273972,0.89999998,
0.7510,0.0888,0.1633,0.8317,4.8143,-0.0919,-1.4423,-0.1894,-1.0887,-0.2313,1009.5174,340.0452,-10.1322,14.7910,47.63969314,-122.12273972,0.89999998,
0.7550,0.0137,0.1971,1.0365,4.8143,-0.0919,-1.4423,-0.1894,-1.0887,-0.2313,1009.5174,340.0452,-10.1322,14.7910,47.63969314,-122.12273972,0.89999998,
0.7580,0.0137,0.1971,1.0365,4.8143,-0.0919,-1.4423,-0.1894,-1.0887,-0.2313,1009.5145,340.0452,-10.1322,14.7910,47.63969314,-122.12273972,0.89999998,
0.7660,0.0137,0.1971,1.0365,0.4788,-0.1462,-1.7323,-0.1894,-1.0887,-0.2313,1009.5145,340.0452,-10.1322,14.7910,47.63969314,-122.12273972,0.89999998,
0.7860,0.0137,0.1971,1.0365,0.4788,-0.1462,-1.7323,-0.1894,-1.0887,-0.2313,1009.5145,340.9787,-10.3707,17.5654,47.63969314,-122.12273972,0.89999998,
0.8060,0.0137,0.1971,1.0365,0.6726,0.7268,0.7117,-0.1894,-1.0887,-0.2313,1009.5145,340.9787,-10.3707,17.5654,47.63969314,-122.12273972,0.89999998,
0.8170,0.0137,0.1971,1.0365,0.6726,0.7268,0.7117,0.1681,-1.4912,-0.0262,1009.5145,340.9787,-10.3707,17.5654,47.63969314,-122.12273972,0.89999998,
0.8260,0.2419,0.1441,1.0079,0.6726,0.7268,0.7117,0.1681,-1.4912,-0.0262,1009.5145,340.9787,-10.3707,17.5654,47.63969314,-122.12273972,0.89999998,
0.8260,0.2419,0.1441,1.0079,0.6726,0.7268,0.7117,0.1681,-1.4912,-0.0262,1009.5145,341.4214,-11.1670,21.4112,47.63969314,-122.12273972,0.89999998,
0.8380,0.2419,0.1441,1.0079,0.6726,0.7268,0.7117,0.1681,-1.4912,-0.0262,1009.8114,341.4214,-11.1670,21.4112,47.63969314,-122.12273972,0.89999998,
0.8450,0.2419,0.1441,1.0079,0.1779,1.0555,-0.6721,0.1681,-1.4912,-0.0262,1009.8114,341.4214,-11.1670,21.4112,47.63969779,-122.12275063,0.38999999,
0.8660,0.2419,0.1441,1.0079,0.1779,1.0555,-0.6721,0.1681,-1.4912,-0.0262,1009.8114,340.2165,-10.9563,25.2852,47.63969779,-122.12275063,0.38999999,
0.8800,0.2419,0.1441,1.0079,0.1779,1.0555,-0.6721,0.0781,-1.5418,0.8852,1009.8114,340.2165,-10.9563,25.2852,47.63969779,-122.12275063,0.38999999,
0.8860,0.2419,0.1441,1.0079,-0.1687,0.4299,-0.5548,0.0781,-1.5418,0.8852,1009.8114,340.2165,-10.9563,25.2852,47.63969779,-122.12275063,0.38999999,
0.8950,0.3943,0.0724,0.9628,-0.1687,0.4299,-0.5548,0.0781,-1.5418,0.8852,1009.8114,340.2165,-10.9563,25.2852,47.63969779,-122.12275063,0.38999999,
0.9060,0.3943,0.0724,0.9628,-0.1687,0.4299,-0.5548,0.0781,-1.5418,0.8852,1009.8114,338.4552,-10.1594,28.9870,47.63969779,-122.12275063,0.38999999,
0.9180,0.3943,0.0724,0.9628,-0.1687,0.4299,-0.5548,0.0781,-1.5418,0.8852,1009.6384,338.4552,-10.1594,28.9870,47.63969779,-122.12275063,0.38999999,
0.9250,0.3943,0.0724,0.9628,1.0169,1.7176,0.3845,0.0781,-1.5418,0.8852,1009.6384,338.4552,-10.1594,28.9870,47.63969779,-122.12275063,0.38999999,
0.9450,0.3943,0.0724,0.9628,1.0169,1.7176,0.3845,-0.1159,-1.0756,0.5626,1009.6384,338.4552,-10.1594,28.9870,47.63969779,-122.12275063,0.38999999,
0.9460,0.3943,0.0724,0.9628,1.0169,1.7176,0.3845,-0.1159,-1.0756,0.5626,1009.6384,337.7298,-9.4604,31.1828,47.63969779,-122.12275063,0.38999999,
0.9580,0.3943,0.0724,0.9628,1.0169,1.7176,0.3845,-0.1159,-1.0756,0.5626,1009.4642,337.7298,-9.4604,31.1828,47.63969779,-122.12275063,0.38999999,
0.9650,0.3999,0.0077,0.8206,1.0169,1.7176,0.3845,-0.1159,-1.0756,0.5626,1009.4642,337.7298,-9.4604,31.1828,47.63969779,-122.12275063,0.38999999,
0.9660,0.3999,0.0077,0.8206,2.0362,2.2267,1.4298,-0.1159,-1.0756,0.5626,1009.4642,337.7298,-9.4604,31.1828,47.63969779,-122.12275063,0.38999999,
0.9850,0.3999,0.0077,0.8206,2.0362,2.2267,1.4298,-0.1159,-1.0756,0.5626,1009.4642,335.5195,-6.2686,32.7783,47.63969779,-122.12275063,0.38999999,
1.0060,0.3999,0.0077,0.8206,2.3893,2.9082,1.8691,-0.1159,-1.0756,0.5626,1009.4642,335.5195,-6.2686,32.7783,47.63969779,-122.12275063,0.38999999,
1.0090,0.3999,0.0077,0.8206,2.3893,2.9082,1.8691,-0.4295,-1.0847,1.1581,1009.4642,335.5195,-6.2686,32.7783,47.63969779,-122.12275063,0.38999999,
1.0250,0.3218,-0.1845,0.6517,2.3893,2.9082,1.8691,-0.4295,-1.0847,1.1581,1009.4642,335.5195,-6.2686,32.7783,47.63969779,-122.12275063,0.38999999,
1.0260,0.3218,-0.1845,0.6517,2.3893,2.9082,1.8691,-0.4295,-1.0847,1.1581,1009.4642,331.8452,-4.9187,37.3205,47.63969779,-122.12275063,0.38999999,
1.0380,0.3218,-0.1845,0.6517,2.3893,2.9082,1.8691,-0.4295,-1.0847,1.1581,1009.4768,331.8452,-4.9187,37.3205,47.63969779,-122.12275063,0.38999999,
1.0450,0.3218,-0.1845,0.6517,1.2042,3.2983,5.2005,-0.4295,-1.0847,1.1581,1009.4768,331.8452,-4.9187,37.3205,47.63969779,-122.12275063,0.38999999,
1.0650,0.3218,-0.1845,0.6517,1.2042,3.2983,5.2005,-0.4295,-1.0847,1.1581,1009.4768,326.3649,-4.7103,44.7624,47.63969779,-122.12275063,0.38999999,
1.0740,0.3218,-0.1845,0.6517,1.2042,3.2983,5.2005,1.1952,-3.0645,2.1366,1009.4768,326.3649,-4.7103,44.7624,47.63969779,-122.12275063,0.38999999,
1.0850,0.3218,-0.1845,0.6517,0.6695,6.7659,6.2275,1.1952,-3.0645,2.1366,1009.4768,326.3649,-4.7103,44.7624,47.63969779,-122.12275063,0.38999999,
1.0940,0.5766,-0.4264,0.1278,0.6695,6.7659,6.2275,1.1952,-3.0645,2.1366,1009.4768,326.3649,-4.7103,44.7624,47.63969779,-122.12275063,0.38999999,
1.1040,0.5766,-0.4264,0.1278,0.6695,6.7659,6.2275,1.1952,-3.0645,2.1366,1009.4768,316.7333,3.0501,53.4109,47.63969779,-122.12275063,0.38999999,
1.1190,0.5766,-0.4264,0.1278,0.6695,6.7659,6.2275,1.1952,-3.0645,2.1366,1009.5289,316.7333,3.0501,53.4109,47.63969779,-122.12275063,0.38999999,
1.1240,0.5766,-0.4264,0.1278,-2.5143,4.1629,-0.7662,1.1952,-3.0645,2.1366,1009.5289,316.7333,3.0501,53.4109,47.63969779,-122.12275063,0.38999999,
1.1390,0.5766,-0.4264,0.1278,-2.5143,4.1629,-0.7662,-1.1709,-3.2473,3.2925,1009.5289,316.7333,3.0501,53.4109,47.63969779,-122.12275063,0.38999999,
1.1460,0.5766,-0.4264,0.1278,-2.5143,4.1629,-0.7662,-1.1709,-3.2473,3.2925,1009.5289,300.4947,20.0989,58.2386,47.63969779,-122.12275063,0.38999999,
1.1590,0.5766,-0.4264,0.1278,-2.5143,4.1629,-0.7662,-1.1709,-3.2473,3.2925,1009.6520,300.4947,20.0989,58.2386,47.63969779,-122.12275063,0.38999999,
1.1640,1.1348,-0.5847,0.5589,-2.5143,4.1629,-0.7662,-1.1709,-3.2473,3.2925,1009.6520,300.4947,20.0989,58.2386,47.63969779,-122.12275063,0.38999999,
1.1650,1.1348,-0.5847,0.5589,-1.7852,3.5325,-3.0127,-1.1709,-3.2473,3.2925,1009.6520,300.4947,20.0989,58.2386,47.63969779,-122.12275063,0.38999999,
1.1840,1.1348,-0.5847,0.5589,-1.7852,3.5325,-3.0127,-1.1709,-3.2473,3.2925,1009.6520,284.3563,37.3948,59.7281,47.63969779,-122.12275063,0.38999999,
1.2040,1.1348,-0.5847,0.5589,-1.7852,3.5325,-3.0127,-1.0836,-2.4595,3.0180,1009.6520,284.3563,37.3948,59.7281,47.63969779,-122.12275063,0.38999999,
1.2040,1.1348,-0.5847,0.5589,-2.1971,2.7343,-3.8171,-1.0836,-2.4595,3.0180,1009.6520,284.3563,37.3948,59.7281,47.63969779,-122.12275063,0.38999999,
1.2240,1.0743,-0.6334,0.7276,-2.1971,2.7343,-3.8171,-1.0836,-2.4595,3.0180,1009.6520,284.3563,37.3948,59.7281,47.63969779,-122.12275063,0.38999999,
1.2240,1.0743,-0.6334,0.7276,-2.1971,2.7343,-3.8171,-1.0836,-2.4595,3.0180,1009.6520,265.5305,54.0658,58.3382,47.63969779,-122.12275063,0.38999999,
1.2380,1.0743,-0.6334,0.7276,-2.1971,2.7343,-3.8171,-1.0836,-2.4595,3.0180,1009.6588,265.5305,54.0658,58.3382,47.63969779,-122.12275063,0.38999999,
1.2440,1.0743,-0.6334,0.7276,-3.8292,-0.5568,-2.5828,-1.0836,-2.4595,3.0180,1009.6588,265.5305,54.0658,58.3382,47.63969779,-122.12275063,0.38999999,
1.2640,1.0743,-0.6334,0.7276,-3.8292,-0.5568,-2.5828,-1.0836,-2.4595,3.0180,1009.6588,249.6187,65.8371,54.2729,47.63969779,-122.12275063,0.38999999,
1.2680,1.0743,-0.6334,0.7276,-3.8292,-0.5568,-2.5828,0.5848,-2.5107,3.4420,1009.6588,249.6187,65.8371,54.2729,47.63969779,-122.12275063,0.38999999,
1.2840,1.0743,-0.6334,0.7276,-4.7116,-1.9350,-2.2086,0.5848,-2.5107,3.4420,1009.6588,249.6187,65.8371,54.2729,47.63969779,-122.12275063,0.38999999,
1.2940,1.2342,-0.4132,0.4903,-4.7116,-1.9350,-2.2086,0.5848,-2.5107,3.4420,1009.6588,249.6187,65.8371,54.2729,47.63969779,-122.12275063,0.38999999,
1.3030,1.2342,-0.4132,0.4903,-4.7116,-1.9350,-2.2086,0.5848,-2.5107,3.4420,1009.6588,236.1568,73.8185,49.9191,47.63969779,-122.12275063,0.38999999,
1.3180,1.2342,-0.4132,0.4903,-4.7116,-1.9350,-2.2086,0.5848,-2.5107,3.4420,1009.6352,236.1568,73.8185,49.9191,47.63969779,-122.12275063,0.38999999,
1.3230,1.2342,-0.4132,0.4903,-5.6040,-2.9129,-2.5840,0.5848,-2.5107,3.4420,1009.6352,236.1568,73.8185,49.9191,47.63969779,-122.12275063,0.38999999,
1.3330,1.2342,-0.4132,0.4903,-5.6040,-2.9129,-2.5840,1.6214,-3.0654,2.6193,1009.6352,236.1568,73.8185,49.9191,47.63969779,-122.12275063,0.38999999,
1.3430,1.2342,-0.4132,0.4903,-5.6040,-2.9129,-2.5840,1.6214,-3.0654,2.6193,1009.6352,223.1983,78.7215,46.7625,47.63969779,-122.12275063,0.38999999,
1.3580,1.2342,-0.4132,0.4903,-5.6040,-2.9129,-2.5840,1.6214,-3.0654,2.6193,1009.6542,223.1983,78.7215,46.7625,47.63969779,-122.12275063,0.38999999,
1.3630,1.3880,-0.2919,0.3366,-5.6040,-2.9129,-2.5840,1.6214,-3.0654,2.6193,1009.6542,223.1983,78.7215,46.7625,47.63969779,-122.12275063,0.38999999,
1.3630,1.3880,-0.2919,0.3366,-8.6405,-6.2661,0.3920,1.6214,-3.0654,2.6193,1009.6542,223.1983,78.7215,46.7625,47.63969779,-122.12275063,0.38999999,
1.3840,1.3880,-0.2919,0.3366,-8.6405,-6.2661,0.3920,1.6214,-3.0654,2.6193,1009.6542,207.2581,82.6008,46.2775,47.63969779,-122.12275063,0.38999999,
1.3990,1.3880,-0.2919,0.3366,-8.6405,-6.2661,0.3920,3.4487,-4.6486,0.7491,1009.6542,207.2581,82.6008,46.2775,47.63969779,-122.12275063,0.38999999,
1.4030,1.3880,-0.2919,0.3366,-8.5698,-8.9621,1.9800,3.4487,-4.6486,0.7491,1009.6542,207.2581,82.6008,46.2775,47.63969779,-122.12275063,0.38999999,
1.4230,1.4629,0.0489,-0.2742,-8.5698,-8.9621,1.9800,3.4487,-4.6486,0.7491,1009.6542,207.2581,82.6008,46.2775,47.63969779,-122.12275063,0.38999999,
1.4230,1.4629,0.0489,-0.2742,-8.5698,-8.9621,1.9800,3.4487,-4.6486,0.7491,1009.6542,194.6392,84.4004,48.1833,47.63969779,-122.12275063,0.38999999,
1.4380,1.4629,0.0489,-0.2742,-8.5698,-8.9621,1.9800,3.4487,-4.6486,0.7491,1009.6676,194.6392,84.4004,48.1833,47.63969779,-122.12275063,0.38999999,
1.4420,1.4629,0.0489,-0.2742,-2.0407,-6.6166,9.0594,3.4487,-4.6486,0.7491,1009.6676,194.6392,84.4004,48.1833,47.63969779,-122.12275063,0.38999999,
1.4620,1.4629,0.0489,-0.2742,-2.0407,-6.6166,9.0594,-0.6327,-0.7866,-0.7245,1009.6676,194.6392,84.4004,48.1833,47.63969779,-122.12275063,0.38999999,
1.4630,1.4629,0.0489,-0.2742,-2.0407,-6.6166,9.0594,-0.6327,-0.7866,-0.7245,1009.6676,195.4676,88.3616,49.5995,47.63969779,-122.12275063,0.38999999,
1.4820,1.4629,0.0489,-0.2742,-1.2486,-2.1334,0.7167,-0.6327,-0.7866,-0.7245,1009.6676,195.4676,88.3616,49.5995,47.63969779,-122.12275063,0.38999999,
1.4930,1.0024,-0.1271,-0.5685,-1.2486,-2.1334,0.7167,-0.6327,-0.7866,-0.7245,1009.6676,195.4676,88.3616,49.5995,47.63969779,-122.12275063,0.38999999,
1.5030,1.0024,-0.1271,-0.5685,-1.2486,-2.1334,0.7167,-0.6327,-0.7866,-0.7245,1009.6676,193.2999,95.8022,55.1965,47.63969779,-122.12275063,0.38999999,
1.5180,1.0024,-0.1271,-0.5685,-1.2486,-2.1334,0.7167,-0.6327,-0.7866,-0.7245,1009.7407,193.2999,95.8022,55.1965,47.63969779,-122.12275063,0.38999999,
1.5220,1.0024,-0.1271,-0.5685,5.1753,4.1287,-3.0331,-0.6327,-0.7866,-0.7245,1009.7407,193.2999,95.8022,55.1965,47.63969779,-122.12275063,0.38999999,
1.5270,1.0024,-0.1271,-0.5685,5.1753,4.1287,-3.0331,-2.0910,-0.4189,-2.2641,1009.7407,193.2999,95.8022,55.1965,47.63969779,-122.12275063,0.38999999,
1.5420,1.0024,-0.1271,-0.5685,5.1753,4.1287,-3.0331,-2.0910,-0.4189,-2.2641,1009.7407,190.2838,101.5742,58.8651,47.63969779,-122.12275063,0.38999999,
1.5580,1.0024,-0.1271,-0.5685,5.1753,4.1287,-3.0331,-2.0910,-0.4189,-2.2641,1009.6897,190.2838,101.5742,58.8651,47.63969779,-122.12275063,0.38999999,
1.5610,0.4042,-0.8719,0.1393,5.1753,4.1287,-3.0331,-2.0910,-0.4189,-2.2641,1009.6897,190.2838,101.5742,58.8651,47.63969779,-122.12275063,0.38999999,
1.5620,0.4042,-0.8719,0.1393,2.6982,3.6673,1.1146,-2.0910,-0.4189,-2.2641,1009.6897,190.2838,101.5742,58.8651,47.63969779,-122.12275063,0.38999999,
1.5820,0.4042,-0.8719,0.1393,2.6982,3.6673,1.1146,-2.0910,-0.4189,-2.2641,1009.6897,179.5689,109.8251,58.9294,47.63969779,-122.12275063,0.38999999,
1.5920,0.4042,-0.8719,0.1393,2.6982,3.6673,1.1146,0.1293,-1.9908,-0.7108,1009.6897,179.5689,109.8251,58.9294,47.63969779,-122.12275063,0.38999999,
1.6020,0.4042,-0.8719,0.1393,-1.7145,4.0883,-8.1230,0.1293,-1.9908,-0.7108,1009.6897,179.5689,109.8251,58.9294,47.63969779,-122.12275063,0.38999999,
1.6220,0.9447,-0.8807,0.0922,-1.7145,4.0883,-8.1230,0.1293,-1.9908,-0.7108,1009.6897,179.5689,109.8251,58.9294,47.63969779,-122.12275063,0.38999999,
1.6230,0.9447,-0.8807,0.0922,-1.7145,4.0883,-8.1230,0.1293,-1.9908,-0.7108,1009.6897,176.7214,112.3476,58.8371,47.63969779,-122.12275063,0.38999999,
1.6380,0.9447,-0.8807,0.0922,-1.7145,4.0883,-8.1230,0.1293,-1.9908,-0.7108,1009.6083,176.7214,112.3476,58.8371,47.63969779,-122.12275063,0.38999999,
1.6410,0.9447,-0.8807,0.0922,0.3246,5.1503,0.6138,0.1293,-1.9908,-0.7108,1009.6083,176.7214,112.3476,58.8371,47.63969779,-122.12275063,0.38999999,
1.6570,0.9447,-0.8807,0.0922,0.3246,5.1503,0.6138,0.1047,0.3002,0.3484,1009.6083,176.7214,112.3476,58.8371,47.63969779,-122.12275063,0.38999999,
1.6610,0.9447,-0.8807,0.0922,0.3246,5.1503,0.6138,0.1047,0.3002,0.3484,1009.6083,179.6168,109.4735,57.8552,47.63969779,-122.12275063,0.38999999,
1.6810,0.9447,-0.8807,0.0922,0.5199,2.1346,-5.1698,0.1047,0.3002,0.3484,1009.6083,179.6168,109.4735,57.8552,47.63969779,-122.12275063,0.38999999,
1.6920,0.8152,-0.8871,0.1263,0.5199,2.1346,-5.1698,0.1047,0.3002,0.3484,1009.6083,179.6168,109.4735,57.8552,47.63969779,-122.12275063,0.38999999,
1.7010,0.8152,-0.8871,0.1263,0.5199,2.1346,-5.1698,0.1047,0.3002,0.3484,1009.6083,180.1762,106.7979,55.8412,47.63969779,-122.12275063,0.38999999,
1.7180,0.8152,-0.8871,0.1263,0.5199,2.1346,-5.1698,0.1047,0.3002,0.3484,1009.5421,180.1762,106.7979,55.8412,47.63969779,-122.12275063,0.38999999,
1.7210,0.8152,-0.8871,0.1263,0.5199,2.1346,-5.1698,0.8561,0.0235,0.9829,1009.5421,180.1762,106.7979,55.8412,47.63969779,-122.12275063,0.38999999,
1.7210,0.8152,-0.8871,0.1263,2.1115,1.1845,-2.6324,0.8561,0.0235,0.9829,1009.5421,180.1762,106.7979,55.8412,47.63969779,-122.12275063,0.38999999,
1.7410,0.8152,-0.8871,0.1263,2.1115,1.1845,-2.6324,0.8561,0.0235,0.9829,1009.5421,182.9202,103.3823,53.1716,47.63969779,-122.12275063,0.38999999,
1.7580,0.8152,-0.8871,0.1263,2.1115,1.1845,-2.6324,0.8561,0.0235,0.9829,1009.6067,182.9202,103.3823,53.1716,47.63969779,-122.12275063,0.38999999,
1.7610,0.6848,-0.6516,0.1147,2.1115,1.1845,-2.6324,0.8561,0.0235,0.9829,1009.6067,182.9202,103.3823,53.1716,47.63969779,-122.12275063,0.38999999,
1.7610,0.6848,-0.6516,0.1147,-0.1798,-0.9196,-1.1458,0.8561,0.0235,0.9829,1009.6067,182.9202,103.3823,53.1716,47.63969779,-122.12275063,0.38999999,
1.7810,0.6848,-0.6516,0.1147,-0.1798,-0.9196,-1.1458,0.8561,0.0235,0.9829,1009.6067,184.7499,102.4543,49.9617,47.63969779,-122.12275063,0.38999999,
1.7860,0.6848,-0.6516,0.1147,-0.1798,-0.9196,-1.1458,-0.1524,0.1683,1.5396,1009.6067,184.7499,102.4543,49.9617,47.63969779,-122.12275063,0.38999999,
1.8010,0.6848,-0.6516,0.1147,0.1254,0.3631,-1.2822,-0.1524,0.1683,1.5396,1009.6067,184.7499,102.4543,49.9617,47.63969779,-122.12275063,0.38999999,
1.8210,0.6848,-0.6516,0.1147,0.1254,0.3631,-1.2822,-0.1524,0.1683,1.5396,1009.6067,185.9583,102.6770,44.6086,47.63969779,-122.12275063,0.38999999,
1.8310,0.7331,-0.6699,-0.0082,0.1254,0.3631,-1.2822,-0.1524,0.1683,1.5396,1009.6067,185.9583,102.6770,44.6086,47.63969779,-122.12275063,0.38999999,
1.8390,0.7331,-0.6699,-0.0082,0.1254,0.3631,-1.2822,-0.1524,0.1683,1.5396,1009.6941,185.9583,102.6770,44.6086,47.63969779,-122.12275063,0.38999999,
1.8410,0.7331,-0.6699,-0.0082,0.1433,0.7946,-1.6633,-0.1524,0.1683,1.5396,1009.6941,185.9583,102.6770,44.6086,47.63969779,-122.12275063,0.38999999,
1.8520,0.7331,-0.6699,-0.0082,0.1433,0.7946,-1.6633,-0.4181,0.2576,3.2041,1009.6941,185.9583,102.6770,44.6086,47.63969779,-122.12275063,0.38999999,
1.8600,0.7331,-0.6699,-0.0082,0.1433,0.7946,-1.6633,-0.4181,0.2576,3.2041,1009.6941,190.2225,100.4950,36.5976,47.63969779,-122.12275063,0.38999999,
1.8800,0.7331,-0.6699,-0.0082,-1.1497,-0.7505,-0.6732,-0.4181,0.2576,3.2041,1009.6941,190.2225,100.4950,36.5976,47.63969779,-122.12275063,0.38999999,
1.8910,0.6441,-0.7604,-0.0284,-1.1497,-0.7505,-0.6732,-0.4181,0.2576,3.2041,1009.6941,190.2225,100.4950,36.5976,47.63969779,-122.12275063,0.38999999,
1.9010,0.6441,-0.7604,-0.0284,-1.1497,-0.7505,-0.6732,-0.4181,0.2576,3.2041,1009.6941,192.4460,98.5796,32.7797,47.63969779,-122.12275063,0.38999999,
1.9150,0.6441,-0.7604,-0.0284,-1.1497,-0.7505,-0.6732,0.3380,0.4968,1.5570,1009.6941,192.4460,98.5796,32.7797,47.63969779,-122.12275063,0.38999999,
1.9180,0.6441,-0.7604,-0.0284,-1.1497,-0.7505,-0.6732,0.3380,0.4968,1.5570,1009.7435,192.4460,98.5796,32.7797,47.63969779,-122.12275063,0.38999999,
1.9200,0.6441,-0.7604,-0.0284,-0.1983,-0.1838,-0.7743,0.3380,0.4968,1.5570,1009.7435,192.4460,98.5796,32.7797,47.63969779,-122.12275063,0.38999999,
1.9400,0.6441,-0.7604,-0.0284,-0.1983,-0.1838,-0.7743,0.3380,0.4968,1.5570,1009.7435,193.3942,96.5593,31.1996,47.63969779,-122.12275063,0.38999999,
1.9580,0.6441,-0.7604,-0.0284,-0.1983,-0.1838,-0.7743,0.3380,0.4968,1.5570,1009.7153,193.3942,96.5593,31.1996,47.63969779,-122.12275063,0.38999999,
1.9600,0.5664,-0.8036,-0.0190,-0.1983,-0.1838,-0.7743,0.3380,0.4968,1.5570,1009.7153,193.3942,96.5593,31.1996,47.63969779,-122.12275063,0.38999999,
1.9600,0.5664,-0.8036,-0.0190,-0.1530,-0.4137,-0.3135,0.3380,0.4968,1.5570,1009.7153,193.3942,96.5593,31.1996,47.63969779,-122.12275063,0.38999999,
1.9800,0.5664,-0.8036,-0.0190,-0.1530,-0.4137,-0.3135,0.9556,0.0404,1.0144,1009.7153,193.3942,96.5593,31.1996,47.63969779,-122.12275063,0.38999999,
1.9800,0.5664,-0.8036,-0.0190,-0.1530,-0.4137,-0.3135,0.9556,0.0404,1.0144,1009.7153,193.5696,94.1138,28.7764,47.63969779,-122.12275063,0.38999999,
1.9990,0.5664,-0.8036,-0.0190,-1.1442,-0.7037,-0.8153,0.9556,0.0404,1.0144,1009.7153,193.5696,94.1138,28.7764,47.63969779,-122.12275063,0.38999999,
2.0200,0.5664,-0.8036,-0.0190,-1.1442,-0.7037,-0.8153,0.9556,0.0404,1.0144,1009.7153,195.3954,91.6035,24.6772,47.63969779,-122.12275063,0.38999999,
2.0300,0.5578,-0.8182,0.0254,-1.1442,-0.7037,-0.8153,0.9556,0.0404,1.0144,1009.7153,195.3954,91.6035,24.6772,47.63969779,-122.12275063,0.38999999,
2.0380,0.5578,-0.8182,0.0254,-1.1442,-0.7037,-0.8153,0.9556,0.0404,1.0144,1009.7112,195.3954,91.6035,24.6772,47.63969779,-122.12275063,0.38999999,
2.0390,0.5578,-0.8182,0.0254,-1.4627,-1.6394,1.5388,0.9556,0.0404,1.0144,1009.7112,195.3954,91.6035,24.6772,47.63969779,-122.12275063,0.38999999,
2.0440,0.5578,-0.8182,0.0254,-1.4627,-1.6394,1.5388,0.5689,0.6659,2.5407,1009.7112,195.3954,91.6035,24.6772,47.63969779,-122.12275063,0.38999999,
2.0610,0.5578,-0.8182,0.0254,-1.4627,-1.6394,1.5388,0.5689,0.6659,2.5407,1009.7112,196.6921,90.0911,17.6645,47.63969779,-122.12275063,0.38999999,
2.0790,0.5578,-0.8182,0.0254,-2.2382,0.2069,0.5763,0.5689,0.6659,2.5407,1009.7112,196.6921,90.0911,17.6645,47.63969779,-122.12275063,0.38999999,
2.0900,0.4769,-0.8505,-0.0814,-2.2382,0.2069,0.5763,0.5689,0.6659,2.5407,1009.7112,196.6921,90.0911,17.6645,47.63969779,-122.12275063,0.38999999,
2.0990,0.4769,-0.8505,-0.0814,-2.2382,0.2069,0.5763,0.5689,0.6659,2.5407,1009.7112,196.2953,88.8375,15.1678,47.63969779,-122.12275063,0.38999999,
2.1090,0.4769,-0.8505,-0.0814,-2.2382,0.2069,0.5763,0.5761,-0.1431,1.2719,1009.7112,196.2953,88.8375,15.1678,47.63969779,-122.12275063,0.38999999,
2.1180,0.4769,-0.8505,-0.0814,-2.2382,0.2069,0.5763,0.5761,-0.1431,1.2719,1009.7656,196.2953,88.8375,15.1678,47.63969779,-122.12275063,0.38999999,
2.1190,0.4769,-0.8505,-0.0814,-0.1565,-6.6695,-1.6380,0.5761,-0.1431,1.2719,1009.7656,196.2953,88.8375,15.1678,47.63969779,-122.12275063,0.38999999,
2.1390,0.4769,-0.8505,-0.0814,-0.1565,-6.6695,-1.6380,0.5761,-0.1431,1.2719,1009.7656,196.2383,87.5508,12.4084,47.63969779,-122.12275063,0.38999999,
2.1590,0.4769,-0.8505,-0.0814,-0.3623,-4.5416,1.3729,0.5761,-0.1431,1.2719,1009.7656,196.2383,87.5508,12.4084,47.63969779,-122.12275063,0.38999999,
2.1600,0.2860,-0.3844,0.0495,-0.3623,-4.5416,1.3729,0.5761,-0.1431,1.2719,1009.7656,196.2383,87.5508,12.4084,47.63969779,-122.12275063,0.38999999,
2.1600,0.2860,-0.3844,0.0495,-0.3623,-4.5416,1.3729,0.5761,-0.1431,1.2719,1009.7059,196.2383,87.5508,12.4084,47.63969779,-122.12275063,0.38999999,
2.1740,0.2860,-0.3844,0.0495,-0.3623,-4.5416,1.3729,0.7339,-0.0563,1.6268,1009.7059,196.2383,87.5508,12.4084,47.63969779,-122.12275063,0.38999999,
2.1790,0.2860,-0.3844,0.0495,-0.3623,-4.5416,1.3729,0.7339,-0.0563,1.6268,1009.7059,195.5710,85.8042,8.6248,47.63969779,-122.12275063,0.38999999,
2.1990,0.2860,-0.3844,0.0495,-1.8248,1.8120,0.3047,0.7339,-0.0563,1.6268,1009.7059,195.5710,85.8042,8.6248,47.63969779,-122.12275063,0.38999999,
2.2190,0.2860,-0.3844,0.0495,-1.8248,1.8120,0.3047,0.7339,-0.0563,1.6268,1009.7059,196.0689,84.5181,3.1688,47.63969779,-122.12275063,0.38999999,
2.2290,0.2723,-0.9621,0.0637,-1.8248,1.8120,0.3047,0.7339,-0.0563,1.6268,1009.7059,196.0689,84.5181,3.1688,47.63969779,-122.12275063,0.38999999,
2.2390,0.2723,-0.9621,0.0637,-1.8248,1.8120,0.3047,0.3608,0.5268,2.1728,1009.7059,196.0689,84.5181,3.1688,47.63969779,-122.12275063,0.38999999,
2.2390,0.2723,-0.9621,0.0637,-1.8248,1.8120,0.3047,0.3608,0.5268,2.1728,1009.6905,196.0689,84.5181,3.1688,47.63969779,-122.12275063,0.38999999,
2.2390,0.2723,-0.9621,0.0637,-3.2952,-1.7949,1.7761,0.3608,0.5268,2.1728,1009.6905,196.0689,84.5181,3.1688,47.63969779,-122.12275063,0.38999999,
2.2590,0.2723,-0.9621,0.0637,-3.2952,-1.7949,1.7761,0.3608,0.5268,2.1728,1009.6905,196.6832,84.6891,-0.5309,47.63969779,-122.12275063,0.38999999,
2.2790,0.2723,-0.9621,0.0637,-11.3904,13.3155,7.6097,0.3608,0.5268,2.1728,1009.6905,196.6832,84.6891,-0.5309,47.63969779,-122.12275063,0.38999999,
2.2890,0.6686,-1.4113,-0.1908,-11.3904,13.3155,7.6097,0.3608,0.5268,2.1728,1009.6905,196.6832,84.6891,-0.5309,47.63969779,-122.12275063,0.38999999,
2.2980,0.6686,-1.4113,-0.1908,-11.3904,13.3155,7.6097,0.3608,0.5268,2.1728,1009.6905,194.2876,86.6800,-1.3444,47.63969779,-122.12275063,0.38999999,
2.3030,0.6686,-1.4113,-0.1908,-11.3904,13.3155,7.6097,-0.8832,-0.6949,0.6924,1009.6905,194.2876,86.6800,-1.3444,47.63969779,-122.12275063,0.38999999,
2.3190,0.6686,-1.4113,-0.1908,-11.3904,13.3155,7.6097,-0.8832,-0.6949,0.6924,1009.6396,194.2876,86.6800,-1.3444,47.63969779,-122.12275063,0.38999999,
2.3190,0.6686,-1.4113,-0.1908,5.8007,6.1242,9.1226,-0.8832,-0.6949,0.6924,1009.6396,194.2876,86.6800,-1.3444,47.63969779,-122.12275063,0.38999999,
2.3390,0.6686,-1.4113,-0.1908,5.8007,6.1242,9.1226,-0.8832,-0.6949,0.6924,1009.6396,191.3196,92.3857,-3.0970,47.63969779,-122.12275063,0.38999999,
2.3590,-0.3505,-1.7290,-0.2023,5.8007,6.1242,9.1226,-0.8832,-0.6949,0.6924,1009.6396,191.3196,92.3857,-3.0970,47.63969779,-122.12275063,0.38999999,
2.3590,-0.3505,-1.7290,-0.2023,5.8007,6.1242,9.1226,-0.8832,-0.6949,0.6924,1009.6285,191.3196,92.3857,-3.0970,47.63969779,-122.12275063,0.38999999,
2.3600,-0.3505,-1.7290,-0.2023,1.7160,5.6699,-4.3043,-0.8832,-0.6949,0.6924,1009.6285,191.3196,92.3857,-3.0970,47.63969779,-122.12275063,0.38999999,
2.3680,-0.3505,-1.7290,-0.2023,1.7160,5.6699,-4.3043,-3.1343,-1.2792,0.2349,1009.6285,191.3196,92.3857,-3.0970,47.63969779,-122.12275063,0.38999999,
2.3780,-0.3505,-1.7290,-0.2023,1.7160,5.6699,-4.3043,-3.1343,-1.2792,0.2349,1009.6285,189.0138,99.7324,-2.6136,47.63969779,-122.12275063,0.38999999,
2.3980,-0.3505,-1.7290,-0.2023,0.6824,2.5383,-2.8135,-3.1343,-1.2792,0.2349,1009.6285,189.0138,99.7324,-2.6136,47.63969779,-122.12275063,0.38999999,
2.4180,-0.3505,-1.7290,-0.2023,0.6824,2.5383,-2.8135,-3.1343,-1.2792,0.2349,1009.6285,185.9420,103.0022,-0.1224,47.63969779,-122.12275063,0.38999999,
2.4280,-0.0195,-1.2519,0.1300,0.6824,2.5383,-2.8135,-3.1343,-1.2792,0.2349,1009.6285,185.9420,103.0022,-0.1224,47.63969779,-122.12275063,0.38999999,
2.4320,-0.0195,-1.2519,0.1300,0.6824,2.5383,-2.8135,-1.4128,-1.3843,-1.1858,1009.6285,185.9420,103.0022,-0.1224,47.63969779,-122.12275063,0.38999999,
2.4380,-0.0195,-1.2519,0.1300,0.6824,2.5383,-2.8135,-1.4128,-1.3843,-1.1858,1009.6780,185.9420,103.0022,-0.1224,47.63969779,-122.12275063,0.38999999,
2.4380,-0.0195,-1.2519,0.1300,-3.4052,-0.6649,-1.7744,-1.4128,-1.3843,-1.1858,1009.6780,185.9420,103.0022,-0.1224,47.63969779,-122.12275063,0.38999999,
2.4580,-0.0195,-1.2519,0.1300,-3.4052,-0.6649,-1.7744,-1.4128,-1.3843,-1.1858,1009.6780,180.1612,105.8268,0.9175,47.63969779,-122.12275063,0.38999999,
2.4780,-0.0195,-1.2519,0.1300,-1.8352,0.9350,-2.8112,-1.4128,-1.3843,-1.1858,1009.6780,180.1612,105.8268,0.9175,47.63969779,-122.12275063,0.38999999,
2.4980,0.2755,-0.9907,0.0439,-1.8352,0.9350,-2.8112,-1.4128,-1.3843,-1.1858,1009.6780,180.1612,105.8268,0.9175,47.63969779,-122.12275063,0.38999999,
2.4980,0.2755,-0.9907,0.0439,-1.8352,0.9350,-2.8112,-1.4371,-2.1716,-1.2249,1009.6780,180.1612,105.8268,0.9175,47.63969779,-122.12275063,0.38999999,
2.4990,0.2755,-0.9907,0.0439,-1.8352,0.9350,-2.8112,-1.4371,-2.1716,-1.2249,1009.6780,174.9344,109.2177,2.2754,47.63969779,-122.12275063,0.38999999,
2.5170,0.2755,-0.9907,0.0439,0.6253,0.2784,-3.4288,-1.4371,-2.1716,-1.2249,1009.6780,174.9344,109.2177,2.2754,47.63969779,-122.12275063,0.38999999,
2.5180,0.2755,-0.9907,0.0439,0.6253,0.2784,-3.4288,-1.4371,-2.1716,-1.2249,1009.6995,174.9344,109.2177,2.2754,47.63969779,-122.12275063,0.38999999,
2.5370,0.2755,-0.9907,0.0439,0.6253,0.2784,-3.4288,-1.4371,-2.1716,-1.2249,1009.6995,170.2201,111.7963,3.3083,47.63969779,-122.12275063,0.38999999,
2.5570,-0.0133,-0.9448,-0.0138,0.6253,0.2784,-3.4288,-1.4371,-2.1716,-1.2249,1009.6995,170.2201,111.7963,3.3083,47.63969779,-122.12275063,0.38999999,
2.5580,-0.0133,-0.9448,-0.0138,1.5116,0.1341,-3.6393,-1.4371,-2.1716,-1.2249,1009.6995,170.2201,111.7963,3.3083,47.63969779,-122.12275063,0.38999999,
2.5580,-0.0133,-0.9448,-0.0138,1.5116,0.1341,-3.6393,-1.4371,-2.1716,-1.2249,1009.7447,170.2201,111.7963,3.3083,47.63969779,-122.12275063,0.38999999,
2.5620,-0.0133,-0.9448,-0.0138,1.5116,0.1341,-3.6393,-0.8564,-1.5233,-1.2177,1009.7447,170.2201,111.7963,3.3083,47.63969779,-122.12275063,0.38999999,
2.5770,-0.0133,-0.9448,-0.0138,1.5116,0.1341,-3.6393,-0.8564,-1.5233,-1.2177,1009.7447,166.4751,113.4604,4.8480,47.63969779,-122.12275063,0.38999999,
2.5970,-0.0133,-0.9448,-0.0138,2.1525,-1.5053,-3.2004,-0.8564,-1.5233,-1.2177,1009.7447,166.4751,113.4604,4.8480,47.63969779,-122.12275063,0.38999999,
2.6170,-0.0133,-0.9448,-0.0138,2.1525,-1.5053,-3.2004,-0.8564,-1.5233,-1.2177,1009.7447,162.5671,115.2461,5.7828,47.63969779,-122.12275063,0.38999999,
2.6280,-0.0133,-0.9448,-0.0138,2.1525,-1.5053,-3.2004,-0.6708,-1.2928,-1.0636,1009.7447,162.5671,115.2461,5.7828,47.63969779,-122.12275063,0.38999999,
2.6280,-0.1246,-0.7790,-0.0617,2.1525,-1.5053,-3.2004,-0.6708,-1.2928,-1.0636,1009.7447,162.5671,115.2461,5.7828,47.63969779,-122.12275063,0.38999999,
2.6370,-0.1246,-0.7790,-0.0617,1.9841,-2.4727,-3.2561,-0.6708,-1.2928,-1.0636,1009.7447,162.5671,115.2461,5.7828,47.63969779,-122.12275063,0.38999999,
2.6380,-0.1246,-0.7790,-0.0617,1.9841,-2.4727,-3.2561,-0.6708,-1.2928,-1.0636,1009.8105,162.5671,115.2461,5.7828,47.63969779,-122.12275063,0.38999999,
2.6570,-0.1246,-0.7790,-0.0617,1.9841,-2.4727,-3.2561,-0.6708,-1.2928,-1.0636,1009.8105,159.8977,116.9754,6.3284,47.63969779,-122.12275063,0.38999999,
2.6770,-0.1246,-0.7790,-0.0617,0.0593,-2.9299,-2.3019,-0.6708,-1.2928,-1.0636,1009.8105,159.8977,116.9754,6.3284,47.63969779,-122.12275063,0.38999999,
2.6920,-0.1246,-0.7790,-0.0617,0.0593,-2.9299,-2.3019,-0.2724,-0.6779,-0.5144,1009.8105,159.8977,116.9754,6.3284,47.63969779,-122.12275063,0.38999999,
2.6970,0.0282,-0.5894,-0.1784,0.0593,-2.9299,-2.3019,-0.2724,-0.6779,-0.5144,1009.8105,159.8977,116.9754,6.3284,47.63969779,-122.12275063,0.38999999,
2.6980,0.0282,-0.5894,-0.1784,0.0593,-2.9299,-2.3019,-0.2724,-0.6779,-0.5144,1009.8105,158.2418,117.2916,6.5655,47.63969779,-122.12275063,0.38999999,
2.7160,0.0282,-0.5894,-0.1784,-0.6439,-3.0557,-1.1616,-0.2724,-0.6779,-0.5144,1009.8105,158.2418,117.2916,6.5655,47.63969779,-122.12275063,0.38999999,
2.7180,0.0282,-0.5894,-0.1784,-0.6439,-3.0557,-1.1616,-0.2724,-0.6779,-0.5144,1009.8538,158.2418,117.2916,6.5655,47.63969779,-122.12275063,0.38999999,
2.7370,0.0282,-0.5894,-0.1784,-0.6439,-3.0557,-1.1616,-0.2724,-0.6779,-0.5144,1009.8538,157.2158,115.9902,6.4596,47.63969779,-122.12275063,0.38999999,
2.7560,0.0282,-0.5894,-0.1784,-0.6439,-3.0557,-1.1616,0.8130,-0.5453,-0.1996,1009.8538,157.2158,115.9902,6.4596,47.63969779,-122.12275063,0.38999999,
2.7570,0.2124,-0.5718,-0.3857,-0.6439,-3.0557,-1.1616,0.8130,-0.5453,-0.1996,1009.8538,157.2158,115.9902,6.4596,47.63969779,-122.12275063,0.38999999,
2.7570,0.2124,-0.5718,-0.3857,-1.9523,-3.0416,0.9725,0.8130,-0.5453,-0.1996,1009.8538,157.2158,115.9902,6.4596,47.63969779,-122.12275063,0.38999999,
2.7580,0.2124,-0.5718,-0.3857,-1.9523,-3.0416,0.9725,0.8130,-0.5453,-0.1996,1009.8256,157.2158,115.9902,6.4596,47.63969779,-122.12275063,0.38999999,
2.7770,0.2124,-0.5718,-0.3857,-1.9523,-3.0416,0.9725,0.8130,-0.5453,-0.1996,1009.8256,155.2771,113.5391,6.5428,47.63969779,-122.12275063,0.38999999,
2.7960,0.2124,-0.5718,-0.3857,-3.7567,0.7757,3.6151,0.8130,-0.5453,-0.1996,1009.8256,155.2771,113.5391,6.5428,47.63969779,-122.12275063,0.38999999,
2.8170,0.2124,-0.5718,-0.3857,-3.7567,0.7757,3.6151,0.8130,-0.5453,-0.1996,1009.8256,154.1616,110.6087,7.4729,47.63969779,-122.12275063,0.38999999,
2.8200,0.2124,-0.5718,-0.3857,-3.7567,0.7757,3.6151,1.2933,-0.3338,-0.4936,1009.8256,154.1616,110.6087,7.4729,47.63969779,-122.12275063,0.38999999,
2.8260,0.4462,-0.9549,-0.6637,-3.7567,0.7757,3.6151,1.2933,-0.3338,-0.4936,1009.8256,154.1616,110.6087,7.4729,47.63969779,-122.12275063,0.38999999,
2.8360,0.4462,-0.9549,-0.6637,-0.4774,3.8644,6.3148,1.2933,-0.3338,-0.4936,1009.8256,154.1616,110.6087,7.4729,47.63969779,-122.12275063,0.38999999,
2.8380,0.4462,-0.9549,-0.6637,-0.4774,3.8644,6.3148,1.2933,-0.3338,-0.4936,1009.8586,154.1616,110.6087,7.4729,47.63969779,-122.12275063,0.38999999,
2.8570,0.4462,-0.9549,-0.6637,-0.4774,3.8644,6.3148,1.2933,-0.3338,-0.4936,1009.8586,153.7528,109.7646,7.7737,47.63969779,-122.12275063,0.38999999,
2.8760,0.4462,-0.9549,-0.6637,4.0257,0.6432,1.2314,1.2933,-0.3338,-0.4936,1009.8586,153.7528,109.7646,7.7737,47.63970466,-122.12276736,0.50000000,
2.8860,0.4462,-0.9549,-0.6637,4.0257,0.6432,1.2314,0.0203,-0.6209,0.0021,1009.8586,153.7528,109.7646,7.7737,47.63970466,-122.12276736,0.50000000,
2.8960,-0.0752,-1.1235,-0.7201,4.0257,0.6432,1.2314,0.0203,-0.6209,0.0021,1009.8586,153.7528,109.7646,7.7737,47.63970466,-122.12276736,0.50000000,
2.8970,-0.0752,-1.1235,-0.7201,4.0257,0.6432,1.2314,0.0203,-0.6209,0.0021,1009.8586,152.0318,110.3226,6.6615,47.63970466,-122.12276736,0.50000000,
2.9160,-0.0752,-1.1235,-0.7201,6.5514,14.2703,1.0355,0.0203,-0.6209,0.0021,1009.8586,152.0318,110.3226,6.6615,47.63970466,-122.12276736,0.50000000,
2.9180,-0.0752,-1.1235,-0.7201,6.5514,14.2703,1.0355,0.0203,-0.6209,0.0021,1009.7977,152.0318,110.3226,6.6615,47.63970466,-122.12276736,0.50000000,
2.9360,-0.0752,-1.1235,-0.7201,6.5514,14.2703,1.0355,0.0203,-0.6209,0.0021,1009.7977,153.8624,110.9921,5.1376,47.63970466,-122.12276736,0.50000000,
2.9510,-0.0752,-1.1235,-0.7201,6.5514,14.2703,1.0355,-0.6541,0.5921,0.7475,1009.7977,153.8624,110.9921,5.1376,47.63970466,-122.12276736,0.50000000,
2.9550,-0.2383,-1.6010,-0.1002,6.5514,14.2703,1.0355,-0.6541,0.5921,0.7475,1009.7977,153.8624,110.9921,5.1376,47.63970466,-122.12276736,0.50000000,
2.9560,-0.2383,-1.6010,-0.1002,0.1087,-6.3229,-13.1932,-0.6541,0.5921,0.7475,1009.7977,153.8624,110.9921,5.1376,47.63970466,-122.12276736,0.50000000,
2.9580,-0.2383,-1.6010,-0.1002,0.1087,-6.3229,-13.1932,-0.6541,0.5921,0.7475,1009.6365,153.8624,110.9921,5.1376,47.63970466,-122.12276736,0.50000000,
2.9760,-0.2383,-1.6010,-0.1002,0.1087,-6.3229,-13.1932,-0.6541,0.5921,0.7475,1009.6365,156.6267,111.9443,4.7824,47.63970466,-122.12276736,0.50000000,
2.9950,-0.2383,-1.6010,-0.1002,-0.3855,-4.6325,-10.4412,-0.6541,0.5921,0.7475,1009.6365,156.6267,111.9443,4.7824,47.63970466,-122.12276736,0.50000000,
3.0160,-0.2383,-1.6010,-0.1002,-0.3855,-4.6325,-10.4412,1.1302,1.4724,0.5671,1009.6365,156.6267,111.9443,4.7824,47.63970466,-122.12276736,0.50000000,
3.0160,-0.2383,-1.6010,-0.1002,-0.3855,-4.6325,-10.4412,1.1302,1.4724,0.5671,1009.6365,160.3326,108.0300,4.8770,47.63970466,-122.12276736,0.50000000,
3.0250,0.1679,-0.6475,0.6071,-0.3855,-4.6325,-10.4412,1.1302,1.4724,0.5671,1009.6365,160.3326,108.0300,4.8770,47.63970466,-122.12276736,0.50000000,
3.0350,0.1679,-0.6475,0.6071,-4.9115,9.5504,0.1902,1.1302,1.4724,0.5671,1009.6365,160.3326,108.0300,4.8770,47.63970466,-122.12276736,0.50000000,
3.0380,0.1679,-0.6475,0.6071,-4.9115,9.5504,0.1902,1.1302,1.4724,0.5671,1009.4308,160.3326,108.0300,4.8770,47.63970466,-122.12276736,0.50000000,
3.0550,0.1679,-0.6475,0.6071,-4.9115,9.5504,0.1902,1.1302,1.4724,0.5671,1009.4308,165.2526,104.2601,4.6405,47.63970466,-122.12276736,0.50000000,
3.0750,0.1679,-0.6475,0.6071,1.7999,-0.9890,-2.0466,1.1302,1.4724,0.5671,1009.4308,165.2526,104.2601,4.6405,47.63970466,-122.12276736,0.50000000,
3.0790,0.1679,-0.6475,0.6071,1.7999,-0.9890,-2.0466,1.3255,1.8093,0.7832,1009.4308,165.2526,104.2601,4.6405,47.63970466,-122.12276736,0.50000000,
3.0950,0.2063,-1.2422,-0.1721,1.7999,-0.9890,-2.0466,1.3255,1.8093,0.7832,1009.4308,165.2526,104.2601,4.6405,47.63970466,-122.12276736,0.50000000,
3.0960,0.2063,-1.2422,-0.1721,1.7999,-0.9890,-2.0466,1.3255,1.8093,0.7832,1009.4308,169.5078,100.8348,3.3204,47.63970466,-122.12276736,0.50000000,
3.1150,0.2063,-1.2422,-0.1721,2.3325,-0.9176,-1.2996,1.3255,1.8093,0.7832,1009.4308,169.5078,100.8348,3.3204,47.63970466,-122.12276736,0.50000000,
3.1180,0.2063,-1.2422,-0.1721,2.3325,-0.9176,-1.2996,1.3255,1.8093,0.7832,1009.5132,169.5078,100.8348,3.3204,47.63970466,-122.12276736,0.50000000,
3.1350,0.2063,-1.2422,-0.1721,2.3325,-0.9176,-1.2996,1.3255,1.8093,0.7832,1009.5132,174.1830,97.7483,0.2854,47.63970466,-122.12276736,0.50000000,
3.1440,0.2063,-1.2422,-0.1721,2.3325,-0.9176,-1.2996,1.2932,1.6137,1.4643,1009.5132,174.1830,97.7483,0.2854,47.63970466,-122.12276736,0.50000000,
3.1540,0.2063,-1.2422,-0.1721,-3.0161,-0.0855,-1.4489,1.2932,1.6137,1.4643,1009.5132,174.1830,97.7483,0.2854,47.63970466,-122.12276736,0.50000000,
3.1580,0.2063,-1.2422,-0.1721,-3.0161,-0.0855,-1.4489,1.2932,1.6137,1.4643,1009.6226,174.1830,97.7483,0.2854,47.63970466,-122.12276736,0.50000000,
3.1640,-0.0254,-0.9251,0.0054,-3.0161,-0.0855,-1.4489,1.2932,1.6137,1.4643,1009.6226,174.1830,97.7483,0.2854,47.63970466,-122.12276736,0.50000000,
3.1750,-0.0254,-0.9251,0.0054,-3.0161,-0.0855,-1.4489,1.2932,1.6137,1.4643,1009.6226,176.0665,95.0154,-1.4063,47.63970466,-122.12276736,0.50000000,
3.1940,-0.0254,-0.9251,0.0054,-3.2368,-0.9931,-1.5637,1.2932,1.6137,1.4643,1009.6226,176.0665,95.0154,-1.4063,47.63970466,-122.12276736,0.50000000,
3.2090,-0.0254,-0.9251,0.0054,-3.2368,-0.9931,-1.5637,1.1701,0.9073,0.5623,1009.6226,176.0665,95.0154,-1.4063,47.63970466,-122.12276736,0.50000000,
3.2150,-0.0254,-0.9251,0.0054,-3.2368,-0.9931,-1.5637,1.1701,0.9073,0.5623,1009.6226,178.5251,92.4252,-2.2975,47.63970466,-122.12276736,0.50000000,
3.2240,0.2707,-0.9182,0.0715,-3.2368,-0.9931,-1.5637,1.1701,0.9073,0.5623,1009.6226,178.5251,92.4252,-2.2975,47.63970466,-122.12276736,0.50000000,
3.2340,0.2707,-0.9182,0.0715,-1.2993,-0.6345,-0.6026,1.1701,0.9073,0.5623,1009.6226,178.5251,92.4252,-2.2975,47.63970466,-122.12276736,0.50000000,
3.2380,0.2707,-0.9182,0.0715,-1.2993,-0.6345,-0.6026,1.1701,0.9073,0.5623,1009.6732,178.5251,92.4252,-2.2975,47.63970466,-122.12276736,0.50000000,
3.2540,0.2707,-0.9182,0.0715,-1.2993,-0.6345,-0.6026,1.1701,0.9073,0.5623,1009.6732,180.6824,89.7803,-3.9656,47.63970466,-122.12276736,0.50000000,
3.2740,0.2707,-0.9182,0.0715,-0.9306,-0.4901,0.6920,1.1701,0.9073,0.5623,1009.6732,180.6824,89.7803,-3.9656,47.63970466,-122.12276736,0.50000000,
3.2750,0.2707,-0.9182,0.0715,-0.9306,-0.4901,0.6920,1.2050,0.7278,0.8027,1009.6732,180.6824,89.7803,-3.9656,47.63970466,-122.12276736,0.50000000,
3.2940,0.0495,-0.9422,-0.0272,-0.9306,-0.4901,0.6920,1.2050,0.7278,0.8027,1009.6732,180.6824,89.7803,-3.9656,47.63970466,-122.12276736,0.50000000,
3.2950,0.0495,-0.9422,-0.0272,-0.9306,-0.4901,0.6920,1.2050,0.7278,0.8027,1009.6732,181.5067,87.1147,-5.8655,47.63970466,-122.12276736,0.50000000,
3.3140,0.0495,-0.9422,-0.0272,-0.8675,-0.7969,1.0717,1.2050,0.7278,0.8027,1009.6732,181.5067,87.1147,-5.8655,47.63970466,-122.12276736,0.50000000,
3.3180,0.0495,-0.9422,-0.0272,-0.8675,-0.7969,1.0717,1.2050,0.7278,0.8027,1009.7214,181.5067,87.1147,-5.8655,47.63970466,-122.12276736,0.50000000,
3.3340,0.0495,-0.9422,-0.0272,-0.8675,-0.7969,1.0717,1.2050,0.7278,0.8027,1009.7214,181.8525,84.6516,-7.5317,47.63970466,-122.12276736,0.50000000,
3.3380,0.0495,-0.9422,-0.0272,-0.8675,-0.7969,1.0717,1.1282,0.2667,0.7463,1009.7214,181.8525,84.6516,-7.5317,47.63970466,-122.12276736,0.50000000,
3.3530,0.0495,-0.9422,-0.0272,-1.6309,0.8340,2.0903,1.1282,0.2667,0.7463,1009.7214,181.8525,84.6516,-7.5317,47.63970466,-122.12276736,0.50000000,
3.3580,0.0495,-0.9422,-0.0272,-1.6309,0.8340,2.0903,1.1282,0.2667,0.7463,1009.6819,181.8525,84.6516,-7.5317,47.63970466,-122.12276736,0.50000000,
3.3640,-0.0056,-0.9715,-0.0616,-1.6309,0.8340,2.0903,1.1282,0.2667,0.7463,1009.6819,181.8525,84.6516,-7.5317,47.63970466,-122.12276736,0.50000000,
3.3740,-0.0056,-0.9715,-0.0616,-1.6309,0.8340,2.0903,1.1282,0.2667,0.7463,1009.6819,182.8050,82.6762,-9.2693,47.63970466,-122.12276736,0.50000000,
3.3930,-0.0056,-0.9715,-0.0616,-2.9163,0.5717,2.0436,1.1282,0.2667,0.7463,1009.6819,182.8050,82.6762,-9.2693,47.63970466,-122.12276736,0.50000000,
3.4030,-0.0056,-0.9715,-0.0616,-2.9163,0.5717,2.0436,0.7579,0.5401,0.6759,1009.6819,182.8050,82.6762,-9.2693,47.63970466,-122.12276736,0.50000000,
3.4140,-0.0056,-0.9715,-0.0616,-2.9163,0.5717,2.0436,0.7579,0.5401,0.6759,1009.6819,183.8671,81.5589,-10.7674,47.63970466,-122.12276736,0.50000000,
3.4240,0.1262,-1.0525,-0.0906,-2.9163,0.5717,2.0436,0.7579,0.5401,0.6759,1009.6819,183.8671,81.5589,-10.7674,47.63970466,-122.12276736,0.50000000,
3.4330,0.1262,-1.0525,-0.0906,-3.9068,0.7448,1.8817,0.7579,0.5401,0.6759,1009.6819,183.8671,81.5589,-10.7674,47.63970466,-122.12276736,0.50000000,
3.4380,0.1262,-1.0525,-0.0906,-3.9068,0.7448,1.8817,0.7579,0.5401,0.6759,1009.6844,183.8671,81.5589,-10.7674,47.63970466,-122.12276736,0.50000000,
3.4540,0.1262,-1.0525,-0.0906,-3.9068,0.7448,1.8817,0.7579,0.5401,0.6759,1009.6844,184.5432,81.2148,-11.9410,47.63970466,-122.12276736,0.50000000,
3.4690,0.1262,-1.0525,-0.0906,-3.9068,0.7448,1.8817,0.2053,0.3330,0.4912,1009.6844,184.5432,81.2148,-11.9410,47.63970466,-122.12276736,0.50000000,
3.4730,0.1262,-1.0525,-0.0906,-2.7354,1.4751,2.2467,0.2053,0.3330,0.4912,1009.6844,184.5432,81.2148,-11.9410,47.63970466,-122.12276736,0.50000000,
3.4930,0.1247,-1.0816,-0.0599,-2.7354,1.4751,2.2467,0.2053,0.3330,0.4912,1009.6844,184.5432,81.2148,-11.9410,47.63970466,-122.12276736,0.50000000,
3.4940,0.1247,-1.0816,-0.0599,-2.7354,1.4751,2.2467,0.2053,0.3330,0.4912,1009.6844,184.9402,81.2449,-12.8640,47.63970466,-122.12276736,0.50000000,
3.5130,0.1247,-1.0816,-0.0599,-4.0840,2.4811,2.6351,0.2053,0.3330,0.4912,1009.6844,184.9402,81.2449,-12.8640,47.63970466,-122.12276736,0.50000000,
3.5180,0.1247,-1.0816,-0.0599,-4.0840,2.4811,2.6351,0.2053,0.3330,0.4912,1009.7109,184.9402,81.2449,-12.8640,47.63970466,-122.12276736,0.50000000,
3.5330,0.1247,-1.0816,-0.0599,-4.0840,2.4811,2.6351,-0.3369,-0.1085,0.1606,1009.7109,184.9402,81.2449,-12.8640,47.63970466,-122.12276736,0.50000000,
3.5330,0.1247,-1.0816,-0.0599,-4.0840,2.4811,2.6351,-0.3369,-0.1085,0.1606,1009.7109,184.4391,82.1461,-12.9375,47.63970466,-122.12276736,0.50000000,
3.5530,0.1247,-1.0816,-0.0599,-3.5609,4.0645,1.9189,-0.3369,-0.1085,0.1606,1009.7109,184.4391,82.1461,-12.9375,47.63970466,-122.12276736,0.50000000,
3.5580,0.1247,-1.0816,-0.0599,-3.5609,4.0645,1.9189,-0.3369,-0.1085,0.1606,1009.7310,184.4391,82.1461,-12.9375,47.63970466,-122.12276736,0.50000000,
3.5630,0.2032,-1.2699,-0.1079,-3.5609,4.0645,1.9189,-0.3369,-0.1085,0.1606,1009.7310,184.4391,82.1461,-12.9375,47.63970466,-122.12276736,0.50000000,
3.5730,0.2032,-1.2699,-0.1079,-3.5609,4.0645,1.9189,-0.3369,-0.1085,0.1606,1009.7310,183.3101,85.5939,-11.2510,47.63970466,-122.12276736,0.50000000,
3.5920,0.2032,-1.2699,-0.1079,4.6880,2.5155,3.4450,-0.3369,-0.1085,0.1606,1009.7310,183.3101,85.5939,-11.2510,47.63970466,-122.12276736,0.50000000,
3.5970,0.2032,-1.2699,-0.1079,4.6880,2.5155,3.4450,-2.1953,-0.5865,-0.7911,1009.7310,183.3101,85.5939,-11.2510,47.63970466,-122.12276736,0.50000000,
3.6130,0.2032,-1.2699,-0.1079,4.6880,2.5155,3.4450,-2.1953,-0.5865,-0.7911,1009.7310,182.2151,92.1977,-9.2345,47.63970466,-122.12276736,0.50000000,
3.6220,-0.4794,-1.3255,-0.1630,4.6880,2.5155,3.4450,-2.1953,-0.5865,-0.7911,1009.7310,182.2151,92.1977,-9.2345,47.63970466,-122.12276736,0.50000000,
3.6320,-0.4794,-1.3255,-0.1630,2.8921,4.9966,-2.6697,-2.1953,-0.5865,-0.7911,1009.7310,182.2151,92.1977,-9.2345,47.63970466,-122.12276736,0.50000000,
3.6380,-0.4794,-1.3255,-0.1630,2.8921,4.9966,-2.6697,-2.1953,-0.5865,-0.7911,1009.6652,182.2151,92.1977,-9.2345,47.63970466,-122.12276736,0.50000000,
3.6530,-0.4794,-1.3255,-0.1630,2.8921,4.9966,-2.6697,-2.1953,-0.5865,-0.7911,1009.6652,181.1059,98.0711,-6.6417,47.63970466,-122.12276736,0.50000000,
3.6620,-0.4794,-1.3255,-0.1630,2.8921,4.9966,-2.6697,-2.5467,-0.5818,-1.2130,1009.6652,181.1059,98.0711,-6.6417,47.63970466,-122.12276736,0.50000000,
3.6730,-0.4794,-1.3255,-0.1630,2.1298,4.2855,-2.9363,-2.5467,-0.5818,-1.2130,1009.6652,181.1059,98.0711,-6.6417,47.63970466,-122.12276736,0.50000000,
3.6930,-0.3271,-1.4441,0.1185,2.1298,4.2855,-2.9363,-2.5467,-0.5818,-1.2130,1009.6652,181.1059,98.0711,-6.6417,47.63970466,-122.12276736,0.50000000,
3.6930,-0.3271,-1.4441,0.1185,2.1298,4.2855,-2.9363,-2.5467,-0.5818,-1.2130,1009.6652,177.1947,101.6392,-4.2313,47.63970466,-122.12276736,0.50000000,
3.7120,-0.3271,-1.4441,0.1185,-0.1224,4.4796,-3.5119,-2.5467,-0.5818,-1.2130,1009.6652,177.1947,101.6392,-4.2313,47.63970466,-122.12276736,0.50000000,
3.7180,-0.3271,-1.4441,0.1185,-0.1224,4.4796,-3.5119,-2.5467,-0.5818,-1.2130,1009.6365,177.1947,101.6392,-4.2313,47.63970466,-122.12276736,0.50000000,
3.7270,-0.3271,-1.4441,0.1185,-0.1224,4.4796,-3.5119,-2.0885,-1.2104,-1.1197,1009.6365,177.1947,101.6392,-4.2313,47.63970466,-122.12276736,0.50000000,
3.7320,-0.3271,-1.4441,0.1185,-0.1224,4.4796,-3.5119,-2.0885,-1.2104,-1.1197,1009.6365,174.3959,106.5337,-2.5273,47.63970466,-122.12276736,0.50000000,
3.7520,-0.3271,-1.4441,0.1185,0.2213,0.2082,-3.0224,-2.0885,-1.2104,-1.1197,1009.6365,174.3959,106.5337,-2.5273,47.63970466,-122.12276736,0.50000000,
3.7580,-0.3271,-1.4441,0.1185,0.2213,0.2082,-3.0224,-2.0885,-1.2104,-1.1197,1009.6859,174.3959,106.5337,-2.5273,47.63970466,-122.12276736,0.50000000,
3.7610,-0.0390,-1.2240,0.0172,0.2213,0.2082,-3.0224,-2.0885,-1.2104,-1.1197,1009.6859,174.3959,106.5337,-2.5273,47.63970466,-122.12276736,0.50000000,
3.7720,-0.0390,-1.2240,0.0172,0.2213,0.2082,-3.0224,-2.0885,-1.2104,-1.1197,1009.6859,172.4728,111.9497,-1.3829,47.63970466,-122.12276736,0.50000000,
3.7930,-0.0390,-1.2240,0.0172,0.2213,0.2082,-3.0224,-2.3653,-0.6262,-0.6689,1009.6859,172.4728,111.9497,-1.3829,47.63970466,-122.12276736,0.50000000,
3.7930,-0.0390,-1.2240,0.0172,1.7773,-2.1057,-5.0745,-2.3653,-0.6262,-0.6689,1009.6859,172.4728,111.9497,-1.3829,47.63970466,-122.12276736,0.50000000,
3.8120,-0.0390,-1.2240,0.0172,1.7773,-2.1057,-5.0745,-2.3653,-0.6262,-0.6689,1009.6859,170.7496,116.7500,-1.0477,47.63970466,-122.12276736,0.50000000,
3.8330,-0.0390,-1.2240,0.0172,1.8215,-3.7033,-5.1328,-2.3653,-0.6262,-0.6689,1009.6859,170.7496,116.7500,-1.0477,47.63970466,-122.12276736,0.50000000,
3.8340,-0.1705,-0.6723,0.0785,1.8215,-3.7033,-5.1328,-2.3653,-0.6262,-0.6689,1009.6859,170.7496,116.7500,-1.0477,47.63970466,-122.12276736,0.50000000,
3.8380,-0.1705,-0.6723,0.0785,1.8215,-3.7033,-5.1328,-2.3653,-0.6262,-0.6689,1009.7374,170.7496,116.7500,-1.0477,47.63970466,-122.12276736,0.50000000,
3.8520,-0.1705,-0.6723,0.0785,1.8215,-3.7033,-5.1328,-2.3653,-0.6262,-0.6689,1009.7374,167.9547,120.8495,-1.4560,47.63970466,-122.12276736,0.50000000,
3.8570,-0.1705,-0.6723,0.0785,1.8215,-3.7033,-5.1328,-1.8967,-1.0369,-0.4558,1009.7374,167.9547,120.8495,-1.4560,47.63970466,-122.12276736,0.50000000,
3.8720,-0.1705,-0.6723,0.0785,1.4086,-4.3589,-6.3081,-1.8967,-1.0369,-0.4558,1009.7374,167.9547,120.8495,-1.4560,47.63970466,-122.12276736,0.50000000,
3.8920,-0.1705,-0.6723,0.0785,1.4086,-4.3589,-6.3081,-1.8967,-1.0369,-0.4558,1009.7374,165.5623,123.4799,-2.0446,47.63970466,-122.12276736,0.50000000,
3.8930,-0.1697,-0.4203,0.0746,1.4086,-4.3589,-6.3081,-1.8967,-1.0369,-0.4558,1009.7374,165.5623,123.4799,-2.0446,47.63970466,-122.12276736,0.50000000,
3.9120,-0.1697,-0.4203,0.0746,-0.7178,-4.4041,-4.3186,-1.8967,-1.0369,-0.4558,1009.7374,165.5623,123.4799,-2.0446,47.63970466,-122.12276736,0.50000000,
3.9180,-0.1697,-0.4203,0.0746,-0.7178,-4.4041,-4.3186,-1.8967,-1.0369,-0.4558,1009.9155,165.5623,123.4799,-2.0446,47.63970466,-122.12276736,0.50000000,
3.9200,-0.1697,-0.4203,0.0746,-0.7178,-4.4041,-4.3186,-0.5361,-0.6805,-0.3506,1009.9155,165.5623,123.4799,-2.0446,47.63970466,-122.12276736,0.50000000,
3.9320,-0.1697,-0.4203,0.0746,-0.7178,-4.4041,-4.3186,-0.5361,-0.6805,-0.3506,1009.9155,164.2328,123.1370,-1.9064,47.63970466,-122.12276736,0.50000000,
3.9520,-0.1697,-0.4203,0.0746,-2.9886,-4.6502,-0.4781,-0.5361,-0.6805,-0.3506,1009.9155,164.2328,123.1370,-1.9064,47.63970466,-122.12276736,0.50000000,
3.9580,-0.1697,-0.4203,0.0746,-2.9886,-4.6502,-0.4781,-0.5361,-0.6805,-0.3506,1009.9241,164.2328,123.1370,-1.9064,47.63970466,-122.12276736,0.50000000,
3.9600,0.1468,-0.3708,-0.2559,-2.9886,-4.6502,-0.4781,-0.5361,-0.6805,-0.3506,1009.9241,164.2328,123.1370,-1.9064,47.63970466,-122.12276736,0.50000000,
3.9730,0.1468,-0.3708,-0.2559,-2.9886,-4.6502,-0.4781,-0.5361,-0.6805,-0.3506,1009.9241,164.0389,118.9768,-1.2447,47.63970466,-122.12276736,0.50000000,
3.9860,0.1468,-0.3708,-0.2559,-2.9886,-4.6502,-0.4781,1.9391,0.0055,-0.2581,1009.9241,164.0389,118.9768,-1.2447,47.63970466,-122.12276736,0.50000000,
3.9910,0.1468,-0.3708,-0.2559,-2.2486,-1.1399,4.4981,1.9391,0.0055,-0.2581,1009.9241,164.0389,118.9768,-1.2447,47.63970466,-122.12276736,0.50000000,
4.0110,0.1468,-0.3708,-0.2559,-2.2486,-1.1399,4.4981,1.9391,0.0055,-0.2581,1009.9241,163.4143,114.2890,-0.7571,47.63970466,-122.12276736,0.50000000,
4.0310,0.1468,-0.3708,-0.2559,0.0308,11.0998,5.6002,1.9391,0.0055,-0.2581,1009.9241,163.4143,114.2890,-0.7571,47.63970466,-122.12276736,0.50000000,
4.0320,0.2039,-0.9442,-0.9019,0.0308,11.0998,5.6002,1.9391,0.0055,-0.2581,1009.9241,163.4143,114.2890,-0.7571,47.63970466,-122.12276736,0.50000000,
4.0380,0.2039,-0.9442,-0.9019,0.0308,11.0998,5.6002,1.9391,0.0055,-0.2581,1009.9108,163.4143,114.2890,-0.7571,47.63970466,-122.12276736,0.50000000,
4.0510,0.2039,-0.9442,-0.9019,0.0308,11.0998,5.6002,1.9391,0.0055,-0.2581,1009.9108,162.4164,112.8341,-0.5253,47.63970466,-122.12276736,0.50000000,
4.0520,0.2039,-0.9442,-0.9019,0.0308,11.0998,5.6002,0.9529,-0.3350,-0.2607,1009.9108,162.4164,112.8341,-0.5253,47.63970466,-122.12276736,0.50000000,
4.0710,0.2039,-0.9442,-0.9019,5.2029,-1.9875,5.9142,0.9529,-0.3350,-0.2607,1009.9108,162.4164,112.8341,-0.5253,47.63970466,-122.12276736,0.50000000,
4.0910,0.2039,-0.9442,-0.9019,5.2029,-1.9875,5.9142,0.9529,-0.3350,-0.2607,1009.9108,162.4528,114.1871,-1.1178,47.63970466,-122.12276736,0.50000000,
4.0920,-0.3631,-1.2800,-0.9473,5.2029,-1.9875,5.9142,0.9529,-0.3350,-0.2607,1009.9108,162.4528,114.1871,-1.1178,47.63970466,-122.12276736,0.50000000,
4.1110,-0.3631,-1.2800,-0.9473,3.8944,-0.1905,-6.4809,0.9529,-0.3350,-0.2607,1009.9108,162.4528,114.1871,-1.1178,47.63970466,-122.12276736,0.50000000,
4.1140,-0.3631,-1.2800,-0.9473,3.8944,-0.1905,-6.4809,-0.1517,-0.1910,0.5493,1009.9108,162.4528,114.1871,-1.1178,47.63970466,-122.12276736,0.50000000,
4.1180,-0.3631,-1.2800,-0.9473,3.8944,-0.1905,-6.4809,-0.1517,-0.1910,0.5493,1009.7916,162.4528,114.1871,-1.1178,47.63970466,-122.12276736,0.50000000,
4.1310,-0.3631,-1.2800,-0.9473,3.8944,-0.1905,-6.4809,-0.1517,-0.1910,0.5493,1009.7916,163.1149,112.7800,-3.2036,47.63970466,-122.12276736,0.50000000,
4.1500,-0.3631,-1.2800,-0.9473,-2.9532,9.7274,1.6908,-0.1517,-0.1910,0.5493,1009.7916,163.1149,112.7800,-3.2036,47.63970466,-122.12276736,0.50000000,
4.1580,-0.3631,-1.2800,-0.9473,-2.9532,9.7274,1.6908,-0.1517,-0.1910,0.5493,1009.6007,163.1149,112.7800,-3.2036,47.63970466,-122.12276736,0.50000000,
4.1600,-0.1104,-1.3888,-0.0942,-2.9532,9.7274,1.6908,-0.1517,-0.1910,0.5493,1009.6007,163.1149,112.7800,-3.2036,47.63970466,-122.12276736,0.50000000,
4.1700,-0.1104,-1.3888,-0.0942,-2.9532,9.7274,1.6908,-0.1517,-0.1910,0.5493,1009.6007,167.7653,112.4049,-1.7702,47.63970466,-122.12276736,0.50000000,
4.1800,-0.1104,-1.3888,-0.0942,-2.9532,9.7274,1.6908,0.5512,1.7500,0.3488,1009.6007,167.7653,112.4049,-1.7702,47.63970466,-122.12276736,0.50000000,
4.1900,-0.1104,-1.3888,-0.0942,-1.2338,-8.2956,-6.7002,0.5512,1.7500,0.3488,1009.6007,167.7653,112.4049,-1.7702,47.63970466,-122.12276736,0.50000000,
4.2100,-0.1104,-1.3888,-0.0942,-1.2338,-8.2956,-6.7002,0.5512,1.7500,0.3488,1009.6007,169.5345,108.3589,-1.5201,47.63970466,-122.12276736,0.50000000,
4.2300,-0.1104,-1.3888,-0.0942,0.7720,5.9996,-5.2930,0.5512,1.7500,0.3488,1009.6007,169.5345,108.3589,-1.5201,47.63970466,-122.12276736,0.50000000,
4.2320,0.1670,-0.5493,0.4485,0.7720,5.9996,-5.2930,0.5512,1.7500,0.3488,1009.6007,169.5345,108.3589,-1.5201,47.63970466,-122.12276736,0.50000000,
4.2380,0.1670,-0.5493,0.4485,0.7720,5.9996,-5.2930,0.5512,1.7500,0.3488,1009.3511,169.5345,108.3589,-1.5201,47.63970466,-122.12276736,0.50000000,
4.2440,0.1670,-0.5493,0.4485,0.7720,5.9996,-5.2930,2.0758,0.7921,0.1566,1009.3511,169.5345,108.3589,-1.5201,47.63970466,-122.12276736,0.50000000,
4.2500,0.1670,-0.5493,0.4485,0.7720,5.9996,-5.2930,2.0758,0.7921,0.1566,1009.3511,172.0080,103.5189,-1.2655,47.63970466,-122.12276736,0.50000000,
4.2700,0.1670,-0.5493,0.4485,1.6676,1.5710,-0.4630,2.0758,0.7921,0.1566,1009.3511,172.0080,103.5189,-1.2655,47.63970466,-122.12276736,0.50000000,
4.2900,-0.2106,-1.2584,-0.0847,1.6676,1.5710,-0.4630,2.0758,0.7921,0.1566,1009.3511,172.0080,103.5189,-1.2655,47.63970466,-122.12276736,0.50000000,
4.2910,-0.2106,-1.2584,-0.0847,1.6676,1.5710,-0.4630,2.0758,0.7921,0.1566,1009.3511,176.8792,101.3002,-4.0080,47.63970466,-122.12276736,0.50000000,
4.3090,-0.2106,-1.2584,-0.0847,1.6676,1.5710,-0.4630,1.3926,1.6022,1.5234,1009.3511,176.8792,101.3002,-4.0080,47.63970466,-122.12276736,0.50000000,
4.3100,-0.2106,-1.2584,-0.0847,1.3526,-0.9959,-1.4279,1.3926,1.6022,1.5234,1009.3511,176.8792,101.3002,-4.0080,47.63970466,-122.12276736,0.50000000,
4.3190,-0.2106,-1.2584,-0.0847,1.3526,-0.9959,-1.4279,1.3926,1.6022,1.5234,1009.5529,176.8792,101.3002,-4.0080,47.63970466,-122.12276736,0.50000000,
4.3300,-0.2106,-1.2584,-0.0847,1.3526,-0.9959,-1.4279,1.3926,1.6022,1.5234,1009.5529,179.7431,97.4209,-6.0979,47.63970466,-122.12276736,0.50000000,
4.3500,-0.2106,-1.2584,-0.0847,-2.2731,0.7536,-2.3183,1.3926,1.6022,1.5234,1009.5529,179.7431,97.4209,-6.0979,47.63970466,-122.12276736,0.50000000,
4.3590,-0.2106,-1.2584,-0.0847,-2.2731,0.7536,-2.3183,1.3926,1.6022,1.5234,1009.6426,179.7431,97.4209,-6.0979,47.63970466,-122.12276736,0.50000000,
4.3600,-0.0668,-0.9958,0.0613,-2.2731,0.7536,-2.3183,1.3926,1.6022,1.5234,1009.6426,179.7431,97.4209,-6.0979,47.63970466,-122.12276736,0.50000000,
4.3690,-0.0668,-0.9958,0.0613,-2.2731,0.7536,-2.3183,1.3926,1.6022,1.5234,1009.6426,182.3034,94.3530,-6.5970,47.63970466,-122.12276736,0.50000000,
4.3740,-0.0668,-0.9958,0.0613,-2.2731,0.7536,-2.3183,1.4697,1.0649,0.4118,1009.6426,182.3034,94.3530,-6.5970,47.63970466,-122.12276736,0.50000000,
4.3890,-0.0668,-0.9958,0.0613,-2.3976,-2.3917,-1.2327,1.4697,1.0649,0.4118,1009.6426,182.3034,94.3530,-6.5970,47.63970466,-122.12276736,0.50000000,
4.4090,-0.0668,-0.9958,0.0613,-2.3976,-2.3917,-1.2327,1.4697,1.0649,0.4118,1009.6426,184.8138,91.2992,-6.9722,47.63970466,-122.12276736,0.50000000,
4.4290,-0.0668,-0.9958,0.0613,-1.9916,0.0862,1.0838,1.4697,1.0649,0.4118,1009.6426,184.8138,91.2992,-6.9722,47.63970466,-122.12276736,0.50000000,
4.4310,0.1324,-0.8386,0.0371,-1.9916,0.0862,1.0838,1.4697,1.0649,0.4118,1009.6426,184.8138,91.2992,-6.9722,47.63970466,-122.12276736,0.50000000,
4.4390,0.1324,-0.8386,0.0371,-1.9916,0.0862,1.0838,1.3563,0.6590,0.3677,1009.6426,184.8138,91.2992,-6.9722,47.63970466,-122.12276736,0.50000000,
4.4410,0.1324,-0.8386,0.0371,-1.9916,0.0862,1.0838,1.3563,0.6590,0.3677,1009.7172,184.8138,91.2992,-6.9722,47.63970466,-122.12276736,0.50000000,
4.4490,0.1324,-0.8386,0.0371,-1.9916,0.0862,1.0838,1.3563,0.6590,0.3677,1009.7172,185.6355,88.5267,-8.0085,47.63970466,-122.12276736,0.50000000,
4.4690,0.1324,-0.8386,0.0371,-0.9805,-0.6732,1.7071,1.3563,0.6590,0.3677,1009.7172,185.6355,88.5267,-8.0085,47.63970466,-122.12276736,0.50000000,
4.4890,0.1324,-0.8386,0.0371,-0.9805,-0.6732,1.7071,1.3563,0.6590,0.3677,1009.7172,186.1888,85.9899,-9.4638,47.63970466,-122.12276736,0.50000000,
4.4990,-0.0163,-0.9651,-0.1108,-0.9805,-0.6732,1.7071,1.3563,0.6590,0.3677,1009.7172,186.1888,85.9899,-9.4638,47.63970466,-122.12276736,0.50000000,
4.5030,-0.0163,-0.9651,-0.1108,-0.9805,-0.6732,1.7071,1.1320,0.2993,0.6530,1009.7172,186.1888,85.9899,-9.4638,47.63970466,-122.12276736,0.50000000,
4.5090,-0.0163,-0.9651,-0.1108,-0.6659,0.0330,2.1290,1.1320,0.2993,0.6530,1009.7172,186.1888,85.9899,-9.4638,47.63970466,-122.12276736,0.50000000,
4.5190,-0.0163,-0.9651,-0.1108,-0.6659,0.0330,2.1290,1.1320,0.2993,0.6530,1009.7140,186.1888,85.9899,-9.4638,47.63970466,-122.12276736,0.50000000,
4.5290,-0.0163,-0.9651,-0.1108,-0.6659,0.0330,2.1290,1.1320,0.2993,0.6530,1009.7140,187.0066,84.0153,-11.1953,47.63970466,-122.12276736,0.50000000,
4.5490,-0.0163,-0.9651,-0.1108,-2.6858,0.2762,1.2450,1.1320,0.2993,0.6530,1009.7140,187.0066,84.0153,-11.1953,47.63970466,-122.12276736,0.50000000,
4.5580,-0.0322,-0.9924,-0.0711,-2.6858,0.2762,1.2450,1.1320,0.2993,0.6530,1009.7140,187.0066,84.0153,-11.1953,47.63970466,-122.12276736,0.50000000,
4.5590,-0.0322,-0.9924,-0.0711,-2.6858,0.2762,1.2450,1.1320,0.2993,0.6530,1009.6946,187.0066,84.0153,-11.1953,47.63970466,-122.12276736,0.50000000,
4.5690,-0.0322,-0.9924,-0.0711,-2.6858,0.2762,1.2450,1.1320,0.2993,0.6530,1009.6946,187.4448,82.3153,-13.0409,47.63970466,-122.12276736,0.50000000,
4.5700,-0.0322,-0.9924,-0.0711,-2.6858,0.2762,1.2450,0.8229,0.3248,0.8045,1009.6946,187.4448,82.3153,-13.0409,47.63970466,-122.12276736,0.50000000,
4.5890,-0.0322,-0.9924,-0.0711,-2.9671,0.3755,1.8029,0.8229,0.3248,0.8045,1009.6946,187.4448,82.3153,-13.0409,47.63970466,-122.12276736,0.50000000,
4.6080,-0.0322,-0.9924,-0.0711,-2.9671,0.3755,1.8029,0.8229,0.3248,0.8045,1009.6946,188.1272,81.3504,-14.1991,47.63970466,-122.12276736,0.50000000,
4.6280,0.0228,-1.0294,-0.0335,-2.9671,0.3755,1.8029,0.8229,0.3248,0.8045,1009.6946,188.1272,81.3504,-14.1991,47.63970466,-122.12276736,0.50000000,
4.6300,0.0228,-1.0294,-0.0335,-1.8916,1.3230,1.9016,0.8229,0.3248,0.8045,1009.6946,188.1272,81.3504,-14.1991,47.63970466,-122.12276736,0.50000000,
4.6320,0.0228,-1.0294,-0.0335,-1.8916,1.3230,1.9016,0.3768,0.2974,0.4241,1009.6946,188.1272,81.3504,-14.1991,47.63970466,-122.12276736,0.50000000,
4.6390,0.0228,-1.0294,-0.0335,-1.8916,1.3230,1.9016,0.3768,0.2974,0.4241,1009.7064,188.1272,81.3504,-14.1991,47.63970466,-122.12276736,0.50000000,
4.6480,0.0228,-1.0294,-0.0335,-1.8916,1.3230,1.9016,0.3768,0.2974,0.4241,1009.7064,188.3582,81.0078,-15.0481,47.63970466,-122.12276736,0.50000000,
4.6680,0.0228,-1.0294,-0.0335,-2.1399,3.0077,2.6484,0.3768,0.2974,0.4241,1009.7064,188.3582,81.0078,-15.0481,47.63970466,-122.12276736,0.50000000,
4.6880,0.0228,-1.0294,-0.0335,-2.1399,3.0077,2.6484,0.3768,0.2974,0.4241,1009.7064,189.0669,81.3841,-15.6125,47.63970466,-122.12276736,0.50000000,
4.6980,-0.0155,-1.1988,-0.0832,-2.1399,3.0077,2.6484,0.3768,0.2974,0.4241,1009.7064,189.0669,81.3841,-15.6125,47.63970466,-122.12276736,0.50000000,
4.7000,-0.0155,-1.1988,-0.0832,-2.1399,3.0077,2.6484,-0.1773,0.2509,0.1804,1009.7064,189.0669,81.3841,-15.6125,47.63970466,-122.12276736,0.50000000,
4.7080,-0.0155,-1.1988,-0.0832,-5.0321,3.5380,3.0952,-0.1773,0.2509,0.1804,1009.7064,189.0669,81.3841,-15.6125,47.63970466,-122.12276736,0.50000000,
4.7180,-0.0155,-1.1988,-0.0832,-5.0321,3.5380,3.0952,-0.1773,0.2509,0.1804,1009.7520,189.0669,81.3841,-15.6125,47.63970466,-122.12276736,0.50000000,
4.7290,-0.0155,-1.1988,-0.0832,-5.0321,3.5380,3.0952,-0.1773,0.2509,0.1804,1009.7520,189.3409,84.1693,-14.5700,47.63970466,-122.12276736,0.50000000,
4.7480,-0.0155,-1.1988,-0.0832,-0.4663,3.2487,3.8699,-0.1773,0.2509,0.1804,1009.7520,189.3409,84.1693,-14.5700,47.63970466,-122.12276736,0.50000000,
4.7580,0.0115,-1.3180,-0.2836,-0.4663,3.2487,3.8699,-0.1773,0.2509,0.1804,1009.7520,189.3409,84.1693,-14.5700,47.63970466,-122.12276736,0.50000000,
4.7590,0.0115,-1.3180,-0.2836,-0.4663,3.2487,3.8699,-0.1773,0.2509,0.1804,1009.7552,189.3409,84.1693,-14.5700,47.63970466,-122.12276736,0.50000000,
4.7620,0.0115,-1.3180,-0.2836,-0.4663,3.2487,3.8699,-2.3895,-0.3376,-0.6470,1009.7552,189.3409,84.1693,-14.5700,47.63970466,-122.12276736,0.50000000,
4.7670,0.0115,-1.3180,-0.2836,-0.4663,3.2487,3.8699,-2.3895,-0.3376,-0.6470,1009.7552,188.2505,90.8136,-12.9310,47.63970466,-122.12276736,0.50000000,
4.7880,0.0115,-1.3180,-0.2836,2.0895,4.2400,-0.3850,-2.3895,-0.3376,-0.6470,1009.7552,188.2505,90.8136,-12.9310,47.63970466,-122.12276736,0.50000000,
4.8070,0.0115,-1.3180,-0.2836,2.0895,4.2400,-0.3850,-2.3895,-0.3376,-0.6470,1009.7552,187.1452,98.3748,-10.0565,47.63970466,-122.12276736,0.50000000,
4.8280,-0.3672,-1.4728,0.0779,2.0895,4.2400,-0.3850,-2.3895,-0.3376,-0.6470,1009.7552,187.1452,98.3748,-10.0565,47.63970466,-122.12276736,0.50000000,
4.8290,-0.3672,-1.4728,0.0779,2.0895,4.2400,-0.3850,-2.8788,-0.7556,-1.4015,1009.7552,187.1452,98.3748,-10.0565,47.63970466,-122.12276736,0.50000000,
4.8300,-0.3672,-1.4728,0.0779,2.0564,6.7091,-5.5320,-2.8788,-0.7556,-1.4015,1009.7552,187.1452,98.3748,-10.0565,47.63970466,-122.12276736,0.50000000,
4.8390,-0.3672,-1.4728,0.0779,2.0564,6.7091,-5.5320,-2.8788,-0.7556,-1.4015,1009.6255,187.1452,98.3748,-10.0565,47.63970466,-122.12276736,0.50000000,
4.8480,-0.3672,-1.4728,0.0779,2.0564,6.7091,-5.5320,-2.8788,-0.7556,-1.4015,1009.6255,183.7315,101.9871,-7.2017,47.63970466,-122.12276736,0.50000000,
4.8670,-0.3672,-1.4728,0.0779,-0.1093,3.6687,-1.5606,-2.8788,-0.7556,-1.4015,1009.6255,183.7315,101.9871,-7.2017,47.63970466,-122.12276736,0.50000000,
4.8870,-0.3672,-1.4728,0.0779,-0.1093,3.6687,-1.5606,-2.8788,-0.7556,-1.4015,1009.6255,180.8271,106.4463,-4.8965,47.63971158,-122.12278964,0.67000002,
4.8930,-0.3672,-1.4728,0.0779,-0.1093,3.6687,-1.5606,-2.0566,-1.0176,-1.3275,1009.6255,180.8271,106.4463,-4.8965,47.63971158,-122.12278964,0.67000002,
4.8970,-0.1627,-1.3917,0.0965,-0.1093,3.6687,-1.5606,-2.0566,-1.0176,-1.3275,1009.6255,180.8271,106.4463,-4.8965,47.63971158,-122.12278964,0.67000002,
4.9070,-0.1627,-1.3917,0.0965,-0.7402,0.2461,-2.6591,-2.0566,-1.0176,-1.3275,1009.6255,180.8271,106.4463,-4.8965,47.63971158,-122.12278964,0.67000002,
4.9180,-0.1627,-1.3917,0.0965,-0.7402,0.2461,-2.6591,-2.0566,-1.0176,-1.3275,1009.6997,180.8271,106.4463,-4.8965,47.63971158,-122.12278964,0.67000002,
4.9260,-0.1627,-1.3917,0.0965,-0.7402,0.2461,-2.6591,-2.0566,-1.0176,-1.3275,1009.6997,176.7470,111.6517,-3.3846,47.63971158,-122.12278964,0.67000002,
4.9470,-0.1627,-1.3917,0.0965,-0.2217,-2.2103,-4.7920,-2.0566,-1.0176,-1.3275,1009.6997,176.7470,111.6517,-3.3846,47.63971158,-122.12278964,0.67000002,
4.9560,-0.1627,-1.3917,0.0965,-0.2217,-2.2103,-4.7920,-2.2819,-1.6621,-1.0485,1009.6997,176.7470,111.6517,-3.3846,47.63971158,-122.12278964,0.67000002,
4.9570,-0.0058,-0.8003,0.0208,-0.2217,-2.2103,-4.7920,-2.2819,-1.6621,-1.0485,1009.6997,176.7470,111.6517,-3.3846,47.63971158,-122.12278964,0.67000002,
4.9580,-0.0058,-0.8003,0.0208,-0.2217,-2.2103,-4.7920,-2.2819,-1.6621,-1.0485,1009.7122,176.7470,111.6517,-3.3846,47.63971158,-122.12278964,0.67000002,
4.9660,-0.0058,-0.8003,0.0208,-0.2217,-2.2103,-4.7920,-2.2819,-1.6621,-1.0485,1009.7122,172.4033,115.9941,-3.0304,47.63971158,-122.12278964,0.67000002,
4.9860,-0.0058,-0.8003,0.0208,1.3973,-3.6284,-5.6528,-2.2819,-1.6621,-1.0485,1009.7122,172.4033,115.9941,-3.0304,47.63971158,-122.12278964,0.67000002,
5.0060,-0.0058,-0.8003,0.0208,1.3973,-3.6284,-5.6528,-2.2819,-1.6621,-1.0485,1009.7122,169.1848,118.7882,-2.9226,47.63971158,-122.12278964,0.67000002,
5.0200,-0.0058,-0.8003,0.0208,1.3973,-3.6284,-5.6528,-1.2654,-1.2106,-0.7445,1009.7122,169.1848,118.7882,-2.9226,47.63971158,-122.12278964,0.67000002,
5.0260,-0.2177,-0.5211,0.1171,1.3973,-3.6284,-5.6528,-1.2654,-1.2106,-0.7445,1009.7122,169.1848,118.7882,-2.9226,47.63971158,-122.12278964,0.67000002,
5.0270,-0.2177,-0.5211,0.1171,3.0306,-3.5946,-5.8539,-1.2654,-1.2106,-0.7445,1009.7122,169.1848,118.7882,-2.9226,47.63971158,-122.12278964,0.67000002,
5.0380,-0.2177,-0.5211,0.1171,3.0306,-3.5946,-5.8539,-1.2654,-1.2106,-0.7445,1009.7968,169.1848,118.7882,-2.9226,47.63971158,-122.12278964,0.67000002,
5.0460,-0.2177,-0.5211,0.1171,3.0306,-3.5946,-5.8539,-1.2654,-1.2106,-0.7445,1009.7968,166.1827,120.1797,-2.9538,47.63971158,-122.12278964,0.67000002,
5.0660,-0.2177,-0.5211,0.1171,1.1375,-4.6945,-4.8350,-1.2654,-1.2106,-0.7445,1009.7968,166.1827,120.1797,-2.9538,47.63971158,-122.12278964,0.67000002,
5.0860,-0.2177,-0.5211,0.1171,1.1375,-4.6945,-4.8350,-0.1282,-0.5792,-0.5209,1009.7968,166.1827,120.1797,-2.9538,47.63971158,-122.12278964,0.67000002,
5.0880,-0.2177,-0.5211,0.1171,1.1375,-4.6945,-4.8350,-0.1282,-0.5792,-0.5209,1009.7968,164.7695,119.9584,-2.6037,47.63971158,-122.12278964,0.67000002,
5.0950,-0.1961,-0.3999,-0.0215,1.1375,-4.6945,-4.8350,-0.1282,-0.5792,-0.5209,1009.7968,164.7695,119.9584,-2.6037,47.63971158,-122.12278964,0.67000002,
5.1060,-0.1961,-0.3999,-0.0215,-0.4875,-4.3983,-0.7742,-0.1282,-0.5792,-0.5209,1009.7968,164.7695,119.9584,-2.6037,47.63971158,-122.12278964,0.67000002,
5.1180,-0.1961,-0.3999,-0.0215,-0.4875,-4.3983,-0.7742,-0.1282,-0.5792,-0.5209,1009.8127,164.7695,119.9584,-2.6037,47.63971158,-122.12278964,0.67000002,
5.1250,-0.1961,-0.3999,-0.0215,-0.4875,-4.3983,-0.7742,-0.1282,-0.5792,-0.5209,1009.8127,164.6431,116.8951,-2.0177,47.63971158,-122.12278964,0.67000002,
5.1460,-0.1961,-0.3999,-0.0215,-2.1547,-2.5828,2.5071,-0.1282,-0.5792,-0.5209,1009.8127,164.6431,116.8951,-2.0177,47.63971158,-122.12278964,0.67000002,
5.1500,-0.1961,-0.3999,-0.0215,-2.1547,-2.5828,2.5071,1.8263,-0.0380,-0.1460,1009.8127,164.6431,116.8951,-2.0177,47.63971158,-122.12278964,0.67000002,
5.1560,0.1103,-0.5361,-0.5326,-2.1547,-2.5828,2.5071,1.8263,-0.0380,-0.1460,1009.8127,164.6431,116.8951,-2.0177,47.63971158,-122.12278964,0.67000002,
5.1580,0.1103,-0.5361,-0.5326,-2.1547,-2.5828,2.5071,1.8263,-0.0380,-0.1460,1009.8926,164.6431,116.8951,-2.0177,47.63971158,-122.12278964,0.67000002,
5.1660,0.1103,-0.5361,-0.5326,-2.1547,-2.5828,2.5071,1.8263,-0.0380,-0.1460,1009.8926,164.1236,111.9887,-1.9591,47.63971158,-122.12278964,0.67000002,
5.1860,0.1103,-0.5361,-0.5326,-3.3128,5.8094,6.6887,1.8263,-0.0380,-0.1460,1009.8926,164.1236,111.9887,-1.9591,47.63971158,-122.12278964,0.67000002,
5.2050,0.1103,-0.5361,-0.5326,-3.3128,5.8094,6.6887,1.8263,-0.0380,-0.1460,1009.8926,162.9056,109.5808,-1.5036,47.63971158,-122.12278964,0.67000002,
5.2150,0.1103,-0.5361,-0.5326,-3.3128,5.8094,6.6887,0.9227,-0.5123,-0.3215,1009.8926,162.9056,109.5808,-1.5036,47.63971158,-122.12278964,0.67000002,
5.2250,0.2089,-1.6269,-1.0098,-3.3128,5.8094,6.6887,0.9227,-0.5123,-0.3215,1009.8926,162.9056,109.5808,-1.5036,47.63971158,-122.12278964,0.67000002,
5.2260,0.2089,-1.6269,-1.0098,-0.4097,4.6168,6.0413,0.9227,-0.5123,-0.3215,1009.8926,162.9056,109.5808,-1.5036,47.63971158,-122.12278964,0.67000002,
5.2380,0.2089,-1.6269,-1.0098,-0.4097,4.6168,6.0413,0.9227,-0.5123,-0.3215,1009.9240,162.9056,109.5808,-1.5036,47.63971158,-122.12278964,0.67000002,
5.2450,0.2089,-1.6269,-1.0098,-0.4097,4.6168,6.0413,0.9227,-0.5123,-0.3215,1009.9240,161.5382,111.1366,-1.4657,47.63971158,-122.12278964,0.67000002,
5.2650,0.2089,-1.6269,-1.0098,6.3607,-4.4161,-4.0483,0.9227,-0.5123,-0.3215,1009.9240,161.5382,111.1366,-1.4657,47.63971158,-122.12278964,0.67000002,
5.2790,0.2089,-1.6269,-1.0098,6.3607,-4.4161,-4.0483,-0.2820,-0.3089,0.3030,1009.9240,161.5382,111.1366,-1.4657,47.63971158,-122.12278964,0.67000002,
5.2850,0.2089,-1.6269,-1.0098,6.3607,-4.4161,-4.0483,-0.2820,-0.3089,0.3030,1009.9240,161.5163,110.8246,-3.1681,47.63971158,-122.12278964,0.67000002,
5.2940,-0.4870,-0.7122,-0.2878,6.3607,-4.4161,-4.0483,-0.2820,-0.3089,0.3030,1009.9240,161.5163,110.8246,-3.1681,47.63971158,-122.12278964,0.67000002,
5.3040,-0.4870,-0.7122,-0.2878,1.8119,12.7006,3.7889,-0.2820,-0.3089,0.3030,1009.9240,161.5163,110.8246,-3.1681,47.63971158,-122.12278964,0.67000002,
5.3190,-0.4870,-0.7122,-0.2878,1.8119,12.7006,3.7889,-0.2820,-0.3089,0.3030,1009.6484,161.5163,110.8246,-3.1681,47.63971158,-122.12278964,0.67000002,
5.3250,-0.4870,-0.7122,-0.2878,1.8119,12.7006,3.7889,-0.2820,-0.3089,0.3030,1009.6484,164.1016,110.4943,-3.1274,47.63971158,-122.12278964,0.67000002,
5.3450,-0.4870,-0.7122,-0.2878,1.8119,12.7006,3.7889,0.2328,1.1830,0.2682,1009.6484,164.1016,110.4943,-3.1274,47.63971158,-122.12278964,0.67000002,
5.3460,-0.4870,-0.7122,-0.2878,-1.7873,-6.4873,-11.4107,0.2328,1.1830,0.2682,1009.6484,164.1016,110.4943,-3.1274,47.63971158,-122.12278964,0.67000002,
5.3590,-0.4870,-0.7122,-0.2878,-1.7873,-6.4873,-11.4107,0.2328,1.1830,0.2682,1009.4037,164.1016,110.4943,-3.1274,47.63971158,-122.12278964,0.67000002,
5.3640,0.0444,-1.3285,0.0185,-1.7873,-6.4873,-11.4107,0.2328,1.1830,0.2682,1009.4037,164.1016,110.4943,-3.1274,47.63971158,-122.12278964,0.67000002,
5.3650,0.0444,-1.3285,0.0185,-1.7873,-6.4873,-11.4107,0.2328,1.1830,0.2682,1009.4037,166.3105,109.1389,-2.7965,47.63971158,-122.12278964,0.67000002,
5.3840,0.0444,-1.3285,0.0185,-1.3168,-1.7522,-7.7144,0.2328,1.1830,0.2682,1009.4037,166.3105,109.1389,-2.7965,47.63971158,-122.12278964,0.67000002,
5.4070,0.0444,-1.3285,0.0185,-1.3168,-1.7522,-7.7144,0.2328,1.1830,0.2682,1009.4037,166.3033,105.1322,-2.9952,47.63971158,-122.12278964,0.67000002,
5.4090,0.0444,-1.3285,0.0185,-1.3168,-1.7522,-7.7144,1.4979,0.2150,0.2463,1009.4037,166.3033,105.1322,-2.9952,47.63971158,-122.12278964,0.67000002,
5.4240,0.0444,-1.3285,0.0185,-0.4491,5.8519,-0.1934,1.4979,0.2150,0.2463,1009.4037,166.3033,105.1322,-2.9952,47.63971158,-122.12278964,0.67000002,
5.4260,0.0598,-1.0291,0.3014,-0.4491,5.8519,-0.1934,1.4979,0.2150,0.2463,1009.4037,166.3033,105.1322,-2.9952,47.63971158,-122.12278964,0.67000002,
5.4390,0.0598,-1.0291,0.3014,-0.4491,5.8519,-0.1934,1.4979,0.2150,0.2463,1009.4791,166.3033,105.1322,-2.9952,47.63971158,-122.12278964,0.67000002,
5.4440,0.0598,-1.0291,0.3014,-0.4491,5.8519,-0.1934,1.4979,0.2150,0.2463,1009.4791,170.0645,102.5239,-4.2012,47.63971158,-122.12278964,0.67000002,
5.4640,0.0598,-1.0291,0.3014,2.8259,-1.7742,-1.1405,1.4979,0.2150,0.2463,1009.4791,170.0645,102.5239,-4.2012,47.63971158,-122.12278964,0.67000002,
5.4740,0.0598,-1.0291,0.3014,2.8259,-1.7742,-1.1405,1.3689,1.5177,1.0762,1009.4791,170.0645,102.5239,-4.2012,47.63971158,-122.12278964,0.67000002,
5.4850,0.0598,-1.0291,0.3014,2.8259,-1.7742,-1.1405,1.3689,1.5177,1.0762,1009.4791,173.8413,98.9924,-6.0441,47.63971158,-122.12278964,0.67000002,
5.4940,-0.2650,-1.0014,-0.0809,2.8259,-1.7742,-1.1405,1.3689,1.5177,1.0762,1009.4791,173.8413,98.9924,-6.0441,47.63971158,-122.12278964,0.67000002,
5.5040,-0.2650,-1.0014,-0.0809,0.0633,1.6124,-2.1438,1.3689,1.5177,1.0762,1009.4791,173.8413,98.9924,-6.0441,47.63971158,-122.12278964,0.67000002,
5.5180,-0.2650,-1.0014,-0.0809,0.0633,1.6124,-2.1438,1.3689,1.5177,1.0762,1009.5820,173.8413,98.9924,-6.0441,47.63971158,-122.12278964,0.67000002,
5.5240,-0.2650,-1.0014,-0.0809,0.0633,1.6124,-2.1438,1.3689,1.5177,1.0762,1009.5820,177.4491,95.9221,-6.1240,47.63971158,-122.12278964,0.67000002,
5.5380,-0.2650,-1.0014,-0.0809,0.0633,1.6124,-2.1438,1.5047,1.4477,0.3268,1009.5820,177.4491,95.9221,-6.1240,47.63971158,-122.12278964,0.67000002,
5.5430,-0.2650,-1.0014,-0.0809,-2.7863,-2.0086,-1.6991,1.5047,1.4477,0.3268,1009.5820,177.4491,95.9221,-6.1240,47.63971158,-122.12278964,0.67000002,
5.5590,-0.2650,-1.0014,-0.0809,-2.7863,-2.0086,-1.6991,1.5047,1.4477,0.3268,1009.6816,177.4491,95.9221,-6.1240,47.63971158,-122.12278964,0.67000002,
5.5630,0.0580,-0.9616,0.0691,-2.7863,-2.0086,-1.6991,1.5047,1.4477,0.3268,1009.6816,177.4491,95.9221,-6.1240,47.63971158,-122.12278964,0.67000002,
5.5640,0.0580,-0.9616,0.0691,-2.7863,-2.0086,-1.6991,1.5047,1.4477,0.3268,1009.6816,180.4106,92.8659,-6.7587,47.63971158,-122.12278964,0.67000002,
5.5830,0.0580,-0.9616,0.0691,-1.2449,-2.2208,-0.5916,1.5047,1.4477,0.3268,1009.6816,180.4106,92.8659,-6.7587,47.63971158,-122.12278964,0.67000002,
5.6030,0.0580,-0.9616,0.0691,-1.2449,-2.2208,-0.5916,1.4253,0.9898,0.5640,1009.6816,180.4106,92.8659,-6.7587,47.63971158,-122.12278964,0.67000002,
5.6050,0.0580,-0.9616,0.0691,-1.2449,-2.2208,-0.5916,1.4253,0.9898,0.5640,1009.6816,182.5384,89.8662,-8.0385,47.63971158,-122.12278964,0.67000002,
5.6230,0.0649,-0.8191,0.0252,-1.2449,-2.2208,-0.5916,1.4253,0.9898,0.5640,1009.6816,182.5384,89.8662,-8.0385,47.63971158,-122.12278964,0.67000002,
5.6250,0.0649,-0.8191,0.0252,-2.5067,-0.8281,0.7957,1.4253,0.9898,0.5640,1009.6816,182.5384,89.8662,-8.0385,47.63971158,-122.12278964,0.67000002,
5.6380,0.0649,-0.8191,0.0252,-2.5067,-0.8281,0.7957,1.4253,0.9898,0.5640,1009.7156,182.5384,89.8662,-8.0385,47.63971158,-122.12278964,0.67000002,
5.6430,0.0649,-0.8191,0.0252,-2.5067,-0.8281,0.7957,1.4253,0.9898,0.5640,1009.7156,182.3798,86.3320,-9.4293,47.63971158,-122.12278964,0.67000002,
5.6630,0.0649,-0.8191,0.0252,-0.0662,-0.4639,1.1987,1.4253,0.9898,0.5640,1009.7156,182.3798,86.3320,-9.4293,47.63971158,-122.12278964,0.67000002,
5.6680,0.0649,-0.8191,0.0252,-0.0662,-0.4639,1.1987,1.5356,0.0250,0.6510,1009.7156,182.3798,86.3320,-9.4293,47.63971158,-122.12278964,0.67000002,
5.6830,0.0649,-0.8191,0.0252,-0.0662,-0.4639,1.1987,1.5356,0.0250,0.6510,1009.7156,182.7385,83.0867,-11.0917,47.63971158,-122.12278964,0.67000002,
5.6930,-0.1191,-0.9337,-0.0823,-0.0662,-0.4639,1.1987,1.5356,0.0250,0.6510,1009.7156,182.7385,83.0867,-11.0917,47.63971158,-122.12278964,0.67000002,
5.7020,-0.1191,-0.9337,-0.0823,-0.2935,0.6798,3.5656,1.5356,0.0250,0.6510,1009.7156,182.7385,83.0867,-11.0917,47.63971158,-122.12278964,0.67000002,
5.7190,-0.1191,-0.9337,-0.0823,-0.2935,0.6798,3.5656,1.5356,0.0250,0.6510,1009.7253,182.7385,83.0867,-11.0917,47.63971158,-122.12278964,0.67000002,
5.7220,-0.1191,-0.9337,-0.0823,-0.2935,0.6798,3.5656,1.5356,0.0250,0.6510,1009.7253,183.6534,80.5728,-13.3749,47.63971158,-122.12278964,0.67000002,
5.7330,-0.1191,-0.9337,-0.0823,-0.2935,0.6798,3.5656,1.1709,0.4635,0.9236,1009.7253,183.6534,80.5728,-13.3749,47.63971158,-122.12278964,0.67000002,
5.7420,-0.1191,-0.9337,-0.0823,-4.8051,0.9229,2.9821,1.1709,0.4635,0.9236,1009.7253,183.6534,80.5728,-13.3749,47.63971158,-122.12278964,0.67000002,
5.7580,-0.1191,-0.9337,-0.0823,-4.8051,0.9229,2.9821,1.1709,0.4635,0.9236,1009.7256,183.6534,80.5728,-13.3749,47.63971158,-122.12278964,0.67000002,
5.7620,0.0805,-1.0507,-0.1724,-4.8051,0.9229,2.9821,1.1709,0.4635,0.9236,1009.7256,183.6534,80.5728,-13.3749,47.63971158,-122.12278964,0.67000002,
5.7630,0.0805,-1.0507,-0.1724,-4.8051,0.9229,2.9821,1.1709,0.4635,0.9236,1009.7256,184.1162,79.2929,-15.0875,47.63971158,-122.12278964,0.67000002,
5.7820,0.0805,-1.0507,-0.1724,-3.4942,1.8393,1.4286,1.1709,0.4635,0.9236,1009.7256,184.1162,79.2929,-15.0875,47.63971158,-122.12278964,0.67000002,
5.7970,0.0805,-1.0507,-0.1724,-3.4942,1.8393,1.4286,0.4228,0.4013,0.5108,1009.7256,184.1162,79.2929,-15.0875,47.63971158,-122.12278964,0.67000002,
5.8020,0.0805,-1.0507,-0.1724,-3.4942,1.8393,1.4286,0.4228,0.4013,0.5108,1009.7256,185.0018,78.8013,-16.0242,47.63971158,-122.12278964,0.67000002,
5.8220,0.0329,-1.1257,0.0157,-3.4942,1.8393,1.4286,0.4228,0.4013,0.5108,1009.7256,185.0018,78.8013,-16.0242,47.63971158,-122.12278964,0.67000002,
5.8240,0.0329,-1.1257,0.0157,-1.6167,1.9379,1.4939,0.4228,0.4013,0.5108,1009.7256,185.0018,78.8013,-16.0242,47.63971158,-122.12278964,0.67000002,
5.8390,0.0329,-1.1257,0.0157,-1.6167,1.9379,1.4939,0.4228,0.4013,0.5108,1009.6879,185.0018,78.8013,-16.0242,47.63971158,-122.12278964,0.67000002,
5.8420,0.0329,-1.1257,0.0157,-1.6167,1.9379,1.4939,0.4228,0.4013,0.5108,1009.6879,185.6339,79.0156,-16.6990,47.63971158,-122.12278964,0.67000002,
5.8620,0.0329,-1.1257,0.0157,-3.3841,3.2314,3.5954,0.4228,0.4013,0.5108,1009.6879,185.6339,79.0156,-16.6990,47.63971158,-122.12278964,0.67000002,
5.8630,0.0329,-1.1257,0.0157,-3.3841,3.2314,3.5954,-0.2047,0.3668,0.0985,1009.6879,185.6339,79.0156,-16.6990,47.63971158,-122.12278964,0.67000002,
5.8820,0.0329,-1.1257,0.0157,-3.3841,3.2314,3.5954,-0.2047,0.3668,0.0985,1009.6879,186.6720,81.3341,-16.0268,47.63971158,-122.12278964,0.67000002,
5.8920,0.0430,-1.2671,-0.1175,-3.3841,3.2314,3.5954,-0.2047,0.3668,0.0985,1009.6879,186.6720,81.3341,-16.0268,47.63971158,-122.12278964,0.67000002,
5.9020,0.0430,-1.2671,-0.1175,-1.6665,4.0298,4.2520,-0.2047,0.3668,0.0985,1009.6879,186.6720,81.3341,-16.0268,47.63971158,-122.12278964,0.67000002,
5.9190,0.0430,-1.2671,-0.1175,-1.6665,4.0298,4.2520,-0.2047,0.3668,0.0985,1009.7142,186.6720,81.3341,-16.0268,47.63971158,-122.12278964,0.67000002,
5.9210,0.0430,-1.2671,-0.1175,-1.6665,4.0298,4.2520,-0.2047,0.3668,0.0985,1009.7142,186.3791,87.0666,-13.6849,47.63971158,-122.12278964,0.67000002,
5.9270,0.0430,-1.2671,-0.1175,-1.6665,4.0298,4.2520,-2.3547,-0.1287,-0.9050,1009.7142,186.3791,87.0666,-13.6849,47.63971158,-122.12278964,0.67000002,
5.9410,0.0430,-1.2671,-0.1175,4.7268,3.9811,1.1705,-2.3547,-0.1287,-0.9050,1009.7142,186.3791,87.0666,-13.6849,47.63971158,-122.12278964,0.67000002,
5.9580,0.0430,-1.2671,-0.1175,4.7268,3.9811,1.1705,-2.3547,-0.1287,-0.9050,1009.6786,186.3791,87.0666,-13.6849,47.63971158,-122.12278964,0.67000002,
5.9610,-0.4791,-1.3533,-0.1821,4.7268,3.9811,1.1705,-2.3547,-0.1287,-0.9050,1009.6786,186.3791,87.0666,-13.6849,47.63971158,-122.12278964,0.67000002,
5.9620,-0.4791,-1.3533,-0.1821,4.7268,3.9811,1.1705,-2.3547,-0.1287,-0.9050,1009.6786,187.4075,94.8957,-11.0186,47.63971158,-122.12278964,0.67000002,
5.9810,-0.4791,-1.3533,-0.1821,1.8144,5.8643,-2.5461,-2.3547,-0.1287,-0.9050,1009.6786,187.4075,94.8957,-11.0186,47.63971158,-122.12278964,0.67000002,
5.9920,-0.4791,-1.3533,-0.1821,1.8144,5.8643,-2.5461,-2.6529,-0.4627,-1.2736,1009.6786,187.4075,94.8957,-11.0186,47.63971158,-122.12278964,0.67000002,
6.0010,-0.4791,-1.3533,-0.1821,1.8144,5.8643,-2.5461,-2.6529,-0.4627,-1.2736,1009.6786,183.9959,98.8340,-8.4675,47.63971158,-122.12278964,0.67000002,
6.0210,-0.4791,-1.3533,-0.1821,0.5013,4.1701,-2.8579,-2.6529,-0.4627,-1.2736,1009.6786,183.9959,98.8340,-8.4675,47.63971158,-122.12278964,0.67000002,
6.0310,-0.3030,-1.5108,0.1616,0.5013,4.1701,-2.8579,-2.6529,-0.4627,-1.2736,1009.6786,183.9959,98.8340,-8.4675,47.63971158,-122.12278964,0.67000002,
6.0390,-0.3030,-1.5108,0.1616,0.5013,4.1701,-2.8579,-2.6529,-0.4627,-1.2736,1009.6311,183.9959,98.8340,-8.4675,47.63971158,-122.12278964,0.67000002,
6.0400,-0.3030,-1.5108,0.1616,0.5013,4.1701,-2.8579,-2.6529,-0.4627,-1.2736,1009.6311,181.9112,103.7158,-6.2958,47.63971158,-122.12278964,0.67000002,
6.0560,-0.3030,-1.5108,0.1616,0.5013,4.1701,-2.8579,-2.2542,-0.8240,-1.1044,1009.6311,181.9112,103.7158,-6.2958,47.63971158,-122.12278964,0.67000002,
6.0620,-0.3030,-1.5108,0.1616,-1.4524,1.0665,-1.6468,-2.2542,-0.8240,-1.1044,1009.6311,181.9112,103.7158,-6.2958,47.63971158,-122.12278964,0.67000002,
6.0810,-0.3030,-1.5108,0.1616,-1.4524,1.0665,-1.6468,-2.2542,-0.8240,-1.1044,1009.6311,178.5853,108.5435,-4.5763,47.63971158,-122.12278964,0.67000002,
6.0910,-0.0246,-1.1193,-0.0046,-1.4524,1.0665,-1.6468,-2.2542,-0.8240,-1.1044,1009.6311,178.5853,108.5435,-4.5763,47.63971158,-122.12278964,0.67000002,
6.1010,-0.0246,-1.1193,-0.0046,0.0148,-1.6468,-5.0635,-2.2542,-0.8240,-1.1044,1009.6311,178.5853,108.5435,-4.5763,47.63971158,-122.12278964,0.67000002,
6.1180,-0.0246,-1.1193,-0.0046,0.0148,-1.6468,-5.0635,-2.2542,-0.8240,-1.1044,1009.6936,178.5853,108.5435,-4.5763,47.63971158,-122.12278964,0.67000002,
6.1200,-0.0246,-1.1193,-0.0046,0.0148,-1.6468,-5.0635,-2.2867,-1.3645,-0.9930,1009.6936,178.5853,108.5435,-4.5763,47.63971158,-122.12278964,0.67000002,
6.1210,-0.0246,-1.1193,-0.0046,0.0148,-1.6468,-5.0635,-2.2867,-1.3645,-0.9930,1009.6936,174.8642,113.3459,-3.6907,47.63971158,-122.12278964,0.67000002,
6.1410,-0.0246,-1.1193,-0.0046,1.9716,-3.8641,-5.1570,-2.2867,-1.3645,-0.9930,1009.6936,174.8642,113.3459,-3.6907,47.63971158,-122.12278964,0.67000002,
6.1590,-0.0246,-1.1193,-0.0046,1.9716,-3.8641,-5.1570,-2.2867,-1.3645,-0.9930,1009.7559,174.8642,113.3459,-3.6907,47.63971158,-122.12278964,0.67000002,
6.1600,-0.1901,-0.5905,0.1194,1.9716,-3.8641,-5.1570,-2.2867,-1.3645,-0.9930,1009.7559,174.8642,113.3459,-3.6907,47.63971158,-122.12278964,0.67000002,
6.1610,-0.1901,-0.5905,0.1194,1.9716,-3.8641,-5.1570,-2.2867,-1.3645,-0.9930,1009.7559,172.1704,116.9022,-3.6354,47.63971158,-122.12278964,0.67000002,
6.1810,-0.1901,-0.5905,0.1194,1.6156,-4.6497,-6.1227,-2.2867,-1.3645,-0.9930,1009.7559,172.1704,116.9022,-3.6354,47.63971158,-122.12278964,0.67000002,
6.1850,-0.1901,-0.5905,0.1194,1.6156,-4.6497,-6.1227,-1.4626,-1.0644,-0.5629,1009.7559,172.1704,116.9022,-3.6354,47.63971158,-122.12278964,0.67000002,
6.2000,-0.1901,-0.5905,0.1194,1.6156,-4.6497,-6.1227,-1.4626,-1.0644,-0.5629,1009.7559,169.3557,118.9908,-3.9064,47.63971158,-122.12278964,0.67000002,
6.2200,-0.1901,-0.5905,0.1194,0.8081,-4.6171,-5.7294,-1.4626,-1.0644,-0.5629,1009.7559,169.3557,118.9908,-3.9064,47.63971158,-122.12278964,0.67000002,
6.2310,-0.2006,-0.4022,0.1381,0.8081,-4.6171,-5.7294,-1.4626,-1.0644,-0.5629,1009.7559,169.3557,118.9908,-3.9064,47.63971158,-122.12278964,0.67000002,
6.2380,-0.2006,-0.4022,0.1381,0.8081,-4.6171,-5.7294,-1.4626,-1.0644,-0.5629,1009.8726,169.3557,118.9908,-3.9064,47.63971158,-122.12278964,0.67000002,
6.2390,-0.2006,-0.4022,0.1381,0.8081,-4.6171,-5.7294,-1.4626,-1.0644,-0.5629,1009.8726,167.1913,119.1406,-4.0673,47.63971158,-122.12278964,0.67000002,
6.2500,-0.2006,-0.4022,0.1381,0.8081,-4.6171,-5.7294,-0.1544,-0.7464,-0.4447,1009.8726,167.1913,119.1406,-4.0673,47.63971158,-122.12278964,0.67000002,
6.2600,-0.2006,-0.4022,0.1381,-0.1821,-6.0750,-3.1074,-0.1544,-0.7464,-0.4447,1009.8726,167.1913,119.1406,-4.0673,47.63971158,-122.12278964,0.67000002,
6.2800,-0.2006,-0.4022,0.1381,-0.1821,-6.0750,-3.1074,-0.1544,-0.7464,-0.4447,1009.8726,166.9059,116.8837,-3.1701,47.63971158,-122.12278964,0.67000002,
6.2910,-0.0128,-0.3445,-0.2343,-0.1821,-6.0750,-3.1074,-0.1544,-0.7464,-0.4447,1009.8726,166.9059,116.8837,-3.1701,47.63971158,-122.12278964,0.67000002,
6.3000,-0.0128,-0.3445,-0.2343,-2.3414,-1.7284,5.9704,-0.1544,-0.7464,-0.4447,1009.8726,166.9059,116.8837,-3.1701,47.63971158,-122.12278964,0.67000002,
6.3140,-0.0128,-0.3445,-0.2343,-2.3414,-1.7284,5.9704,2.0826,0.2624,-0.2720,1009.8726,166.9059,116.8837,-3.1701,47.63971158,-122.12278964,0.67000002,
6.3180,-0.0128,-0.3445,-0.2343,-2.3414,-1.7284,5.9704,2.0826,0.2624,-0.2720,1009.9171,166.9059,116.8837,-3.1701,47.63971158,-122.12278964,0.67000002,
6.3190,-0.0128,-0.3445,-0.2343,-2.3414,-1.7284,5.9704,2.0826,0.2624,-0.2720,1009.9171,167.2144,111.2153,-2.4172,47.63971158,-122.12278964,0.67000002,
6.3400,-0.0128,-0.3445,-0.2343,-5.5464,11.0381,6.8787,2.0826,0.2624,-0.2720,1009.9171,167.2144,111.2153,-2.4172,47.63971158,-122.12278964,0.67000002,
6.3580,-0.0128,-0.3445,-0.2343,-5.5464,11.0381,6.8787,2.0826,0.2624,-0.2720,1009.9345,167.2144,111.2153,-2.4172,47.63971158,-122.12278964,0.67000002,
6.3600,0.3766,-1.5282,-1.1211,-5.5464,11.0381,6.8787,2.0826,0.2624,-0.2720,1009.9345,167.2144,111.2153,-2.4172,47.63971158,-122.12278964,0.67000002,
6.3600,0.3766,-1.5282,-1.1211,-5.5464,11.0381,6.8787,2.0826,0.2624,-0.2720,1009.9345,165.5571,109.0701,-2.3398,47.63971158,-122.12278964,0.67000002,
6.3790,0.3766,-1.5282,-1.1211,-5.5464,11.0381,6.8787,0.2138,-0.5443,-0.3306,1009.9345,165.5571,109.0701,-2.3398,47.63971158,-122.12278964,0.67000002,
6.3810,0.3766,-1.5282,-1.1211,2.2234,0.4769,4.9523,0.2138,-0.5443,-0.3306,1009.9345,165.5571,109.0701,-2.3398,47.63971158,-122.12278964,0.67000002,
6.3990,0.3766,-1.5282,-1.1211,2.2234,0.4769,4.9523,0.2138,-0.5443,-0.3306,1009.9345,164.2681,111.3643,-1.9220,47.63971158,-122.12278964,0.67000002,
6.4190,0.3766,-1.5282,-1.1211,4.4836,-3.7282,-2.8278,0.2138,-0.5443,-0.3306,1009.9345,164.2681,111.3643,-1.9220,47.63971158,-122.12278964,0.67000002,
6.4300,-0.3336,-0.7326,-0.6147,4.4836,-3.7282,-2.8278,0.2138,-0.5443,-0.3306,1009.9345,164.2681,111.3643,-1.9220,47.63971158,-122.12278964,0.67000002,
6.4390,-0.3336,-0.7326,-0.6147,4.4836,-3.7282,-2.8278,0.2138,-0.5443,-0.3306,1009.8184,164.2681,111.3643,-1.9220,47.63971158,-122.12278964,0.67000002,
6.4400,-0.3336,-0.7326,-0.6147,4.4836,-3.7282,-2.8278,0.2138,-0.5443,-0.3306,1009.8184,163.6452,110.6825,-3.2506,47.63971158,-122.12278964,0.67000002,
6.4440,-0.3336,-0.7326,-0.6147,4.4836,-3.7282,-2.8278,0.1670,-0.5019,0.2444,1009.8184,163.6452,110.6825,-3.2506,47.63971158,-122.12278964,0.67000002,
6.4590,-0.3336,-0.7326,-0.6147,0.6174,12.5177,1.4754,0.1670,-0.5019,0.2444,1009.8184,163.6452,110.6825,-3.2506,47.63971158,-122.12278964,0.67000002,
6.4790,-0.3336,-0.7326,-0.6147,0.6174,12.5177,1.4754,0.1670,-0.5019,0.2444,1009.8184,165.2183,109.6681,-3.5752,47.63971158,-122.12278964,0.67000002,
6.4890,-0.1210,-1.6977,-0.1240,0.6174,12.5177,1.4754,0.1670,-0.5019,0.2444,1009.8184,165.2183,109.6681,-3.5752,47.63971158,-122.12278964,0.67000002,
6.4990,-0.1210,-1.6977,-0.1240,1.6047,-6.9888,-12.0803,0.1670,-0.5019,0.2444,1009.8184,165.2183,109.6681,-3.5752,47.63971158,-122.12278964,0.67000002,
6.5090,-0.1210,-1.6977,-0.1240,1.6047,-6.9888,-12.0803,0.0116,0.8938,0.4282,1009.8184,165.2183,109.6681,-3.5752,47.63971158,-122.12278964,0.67000002,
6.5210,-0.1210,-1.6977,-0.1240,1.6047,-6.9888,-12.0803,0.0116,0.8938,0.4282,1009.8184,167.0201,109.4407,-4.3025,47.63971158,-122.12278964,0.67000002,
6.5220,-0.1210,-1.6977,-0.1240,1.6047,-6.9888,-12.0803,0.0116,0.8938,0.4282,1009.5605,167.0201,109.4407,-4.3025,47.63971158,-122.12278964,0.67000002,
6.5390,-0.1210,-1.6977,-0.1240,1.1706,-2.0930,-9.2352,0.0116,0.8938,0.4282,1009.5605,167.0201,109.4407,-4.3025,47.63971158,-122.12278964,0.67000002,
6.5590,-0.2422,-0.4679,0.5961,1.1706,-2.0930,-9.2352,0.0116,0.8938,0.4282,1009.5605,167.0201,109.4407,-4.3025,47.63971158,-122.12278964,0.67000002,
6.5600,-0.2422,-0.4679,0.5961,1.1706,-2.0930,-9.2352,0.0116,0.8938,0.4282,1009.3721,167.0201,109.4407,-4.3025,47.63971158,-122.12278964,0.67000002,
6.5610,-0.2422,-0.4679,0.5961,1.1706,-2.0930,-9.2352,0.0116,0.8938,0.4282,1009.3721,166.7274,104.2606,-5.1503,47.63971158,-122.12278964,0.67000002,
6.5740,-0.2422,-0.4679,0.5961,1.1706,-2.0930,-9.2352,1.9458,0.3354,0.3815,1009.3721,166.7274,104.2606,-5.1503,47.63971158,-122.12278964,0.67000002,
6.5780,-0.2422,-0.4679,0.5961,-2.4961,6.4399,-1.0879,1.9458,0.3354,0.3815,1009.3721,166.7274,104.2606,-5.1503,47.63971158,-122.12278964,0.67000002,
6.5990,-0.2422,-0.4679,0.5961,-2.4961,6.4399,-1.0879,1.9458,0.3354,0.3815,1009.3721,171.5447,101.4672,-5.6781,47.63971158,-122.12278964,0.67000002,
6.6190,-0.2422,-0.4679,0.5961,0.3712,0.3196,-0.2588,1.9458,0.3354,0.3815,1009.3721,171.5447,101.4672,-5.6781,47.63971158,-122.12278964,0.67000002,
6.6290,0.0504,-1.3884,-0.0725,0.3712,0.3196,-0.2588,1.9458,0.3354,0.3815,1009.3721,171.5447,101.4672,-5.6781,47.63971158,-122.12278964,0.67000002,
6.6390,0.0504,-1.3884,-0.0725,0.3712,0.3196,-0.2588,1.5387,1.9470,0.7391,1009.3721,171.5447,101.4672,-5.6781,47.63971158,-122.12278964,0.67000002,
6.6400,0.0504,-1.3884,-0.0725,0.3712,0.3196,-0.2588,1.5387,1.9470,0.7391,1009.5508,171.5447,101.4672,-5.6781,47.63971158,-122.12278964,0.67000002,
6.6410,0.0504,-1.3884,-0.0725,0.3712,0.3196,-0.2588,1.5387,1.9470,0.7391,1009.5508,175.9094,97.7482,-6.7345,47.63971158,-122.12278964,0.67000002,
6.6580,0.0504,-1.3884,-0.0725,0.4944,-0.5792,-1.2681,1.5387,1.9470,0.7391,1009.5508,175.9094,97.7482,-6.7345,47.63971158,-122.12278964,0.67000002,
6.6780,0.0504,-1.3884,-0.0725,0.4944,-0.5792,-1.2681,1.5387,1.9470,0.7391,1009.5508,179.0571,94.7613,-6.9376,47.63971158,-122.12278964,0.67000002,
6.6980,0.0504,-1.3884,-0.0725,-1.0429,-2.3011,-1.2223,1.5387,1.9470,0.7391,1009.5508,179.0571,94.7613,-6.9376,47.63971158,-122.12278964,0.67000002,
6.7000,-0.1467,-0.8776,0.0367,-1.0429,-2.3011,-1.2223,1.5387,1.9470,0.7391,1009.5508,179.0571,94.7613,-6.9376,47.63971158,-122.12278964,0.67000002,
6.7030,-0.1467,-0.8776,0.0367,-1.0429,-2.3011,-1.2223,1.3912,1.2814,0.3739,1009.5508,179.0571,94.7613,-6.9376,47.63971158,-122.12278964,0.67000002,
6.7190,-0.1467,-0.8776,0.0367,-1.0429,-2.3011,-1.2223,1.3912,1.2814,0.3739,1009.5508,181.7784,92.0091,-8.0116,47.63971158,-122.12278964,0.67000002,
6.7200,-0.1467,-0.8776,0.0367,-1.0429,-2.3011,-1.2223,1.3912,1.2814,0.3739,1009.6411,181.7784,92.0091,-8.0116,47.63971158,-122.12278964,0.67000002,
6.7380,-0.1467,-0.8776,0.0367,-2.1831,-0.5808,0.1766,1.3912,1.2814,0.3739,1009.6411,181.7784,92.0091,-8.0116,47.63971158,-122.12278964,0.67000002,
6.7590,0.0554,-0.8495,-0.0071,-2.1831,-0.5808,0.1766,1.3912,1.2814,0.3739,1009.6411,181.7784,92.0091,-8.0116,47.63971158,-122.12278964,0.67000002,
6.7600,0.0554,-0.8495,-0.0071,-2.1831,-0.5808,0.1766,1.3912,1.2814,0.3739,1009.7104,181.7784,92.0091,-8.0116,47.63971158,-122.12278964,0.67000002,
6.7610,0.0554,-0.8495,-0.0071,-2.1831,-0.5808,0.1766,1.3912,1.2814,0.3739,1009.7104,182.8934,89.4140,-9.4485,47.63971158,-122.12278964,0.67000002,
6.7680,0.0554,-0.8495,-0.0071,-2.1831,-0.5808,0.1766,1.2423,0.4595,0.6764,1009.7104,182.8934,89.4140,-9.4485,47.63971158,-122.12278964,0.67000002,
6.7770,0.0554,-0.8495,-0.0071,-3.3782,-0.1600,1.1792,1.2423,0.4595,0.6764,1009.7104,182.8934,89.4140,-9.4485,47.63971158,-122.12278964,0.67000002,
6.7970,0.0554,-0.8495,-0.0071,-3.3782,-0.1600,1.1792,1.2423,0.4595,0.6764,1009.7104,182.8181,86.4983,-10.8313,47.63971158,-122.12278964,0.67000002,
6.8180,0.0554,-0.8495,-0.0071,-1.8975,-0.5587,1.7424,1.2423,0.4595,0.6764,1009.7104,182.8181,86.4983,-10.8313,47.63971158,-122.12278964,0.67000002,
6.8280,0.0948,-0.9423,-0.0835,-1.8975,-0.5587,1.7424,1.2423,0.4595,0.6764,1009.7104,182.8181,86.4983,-10.8313,47.63971158,-122.12278964,0.67000002,
6.8330,0.0948,-0.9423,-0.0835,-1.8975,-0.5587,1.7424,1.2959,0.0127,0.6889,1009.7104,182.8181,86.4983,-10.8313,47.63971158,-122.12278964,0.67000002,
6.8390,0.0948,-0.9423,-0.0835,-1.8975,-0.5587,1.7424,1.2959,0.0127,0.6889,1009.7104,182.8394,83.6633,-12.4030,47.63971158,-122.12278964,0.67000002,
6.8400,0.0948,-0.9423,-0.0835,-1.8975,-0.5587,1.7424,1.2959,0.0127,0.6889,1009.7554,182.8394,83.6633,-12.4030,47.63971158,-122.12278964,0.67000002,
6.8570,0.0948,-0.9423,-0.0835,-0.9357,0.4785,2.6624,1.2959,0.0127,0.6889,1009.7554,182.8394,83.6633,-12.4030,47.63971158,-122.12278964,0.67000002,
6.8770,0.0948,-0.9423,-0.0835,-0.9357,0.4785,2.6624,1.2959,0.0127,0.6889,1009.7554,182.9562,81.1522,-14.4125,47.63971611,-122.12280798,0.52999997,
6.8980,0.0948,-0.9423,-0.0835,-3.7402,0.4351,2.6653,1.2959,0.0127,0.6889,1009.7554,182.9562,81.1522,-14.4125,47.63971611,-122.12280798,0.52999997,
6.8990,-0.0588,-0.9898,-0.1196,-3.7402,0.4351,2.6653,1.2959,0.0127,0.6889,1009.7554,182.9562,81.1522,-14.4125,47.63971611,-122.12280798,0.52999997,
6.9000,-0.0588,-0.9898,-0.1196,-3.7402,0.4351,2.6653,1.0322,0.0530,0.8566,1009.7554,182.9562,81.1522,-14.4125,47.63971611,-122.12280798,0.52999997,
6.9170,-0.0588,-0.9898,-0.1196,-3.7402,0.4351,2.6653,1.0322,0.0530,0.8566,1009.7554,182.7304,79.5544,-15.8751,47.63971611,-122.12280798,0.52999997,
6.9180,-0.0588,-0.9898,-0.1196,-3.7402,0.4351,2.6653,1.0322,0.0530,0.8566,1009.7478,182.7304,79.5544,-15.8751,47.63971611,-122.12280798,0.52999997,
6.9380,-0.0588,-0.9898,-0.1196,-2.2298,1.7928,1.7914,1.0322,0.0530,0.8566,1009.7478,182.7304,79.5544,-15.8751,47.63971611,-122.12280798,0.52999997,
6.9570,-0.0588,-0.9898,-0.1196,-2.2298,1.7928,1.7914,1.0322,0.0530,0.8566,1009.7478,183.3682,79.1007,-16.6733,47.63971611,-122.12280798,0.52999997,
6.9580,0.0069,-1.0815,-0.0402,-2.2298,1.7928,1.7914,1.0322,0.0530,0.8566,1009.7478,183.3682,79.1007,-16.6733,47.63971611,-122.12280798,0.52999997,
6.9580,0.0069,-1.0815,-0.0402,-2.2298,1.7928,1.7914,1.0322,0.0530,0.8566,1009.7227,183.3682,79.1007,-16.6733,47.63971611,-122.12280798,0.52999997,
6.9610,0.0069,-1.0815,-0.0402,-2.2298,1.7928,1.7914,0.3426,0.2855,0.3791,1009.7227,183.3682,79.1007,-16.6733,47.63971611,-122.12280798,0.52999997,
6.9770,0.0069,-1.0815,-0.0402,-1.6844,2.0491,1.8534,0.3426,0.2855,0.3791,1009.7227,183.3682,79.1007,-16.6733,47.63971611,-122.12280798,0.52999997,
6.9960,0.0069,-1.0815,-0.0402,-1.6844,2.0491,1.8534,0.3426,0.2855,0.3791,1009.7227,184.5079,79.3545,-17.3381,47.63971611,-122.12280798,0.52999997,
7.0170,0.0069,-1.0815,-0.0402,-4.9528,3.7091,4.5294,0.3426,0.2855,0.3791,1009.7227,184.5079,79.3545,-17.3381,47.63971611,-122.12280798,0.52999997,
7.0260,0.0069,-1.0815,-0.0402,-4.9528,3.7091,4.5294,-0.3673,0.6347,0.0093,1009.7227,184.5079,79.3545,-17.3381,47.63971611,-122.12280798,0.52999997,
7.0270,0.0181,-1.2150,-0.1712,-4.9528,3.7091,4.5294,-0.3673,0.6347,0.0093,1009.7227,184.5079,79.3545,-17.3381,47.63971611,-122.12280798,0.52999997,
7.0360,0.0181,-1.2150,-0.1712,-4.9528,3.7091,4.5294,-0.3673,0.6347,0.0093,1009.7227,186.0700,81.8266,-16.9236,47.63971611,-122.12280798,0.52999997,
7.0380,0.0181,-1.2150,-0.1712,-4.9528,3.7091,4.5294,-0.3673,0.6347,0.0093,1009.7457,186.0700,81.8266,-16.9236,47.63971611,-122.12280798,0.52999997,
7.0570,0.0181,-1.2150,-0.1712,-2.9574,3.9265,4.5041,-0.3673,0.6347,0.0093,1009.7457,186.0700,81.8266,-16.9236,47.63971611,-122.12280798,0.52999997,
7.0760,0.0181,-1.2150,-0.1712,-2.9574,3.9265,4.5041,-0.3673,0.6347,0.0093,1009.7457,185.4959,87.7551,-15.0140,47.63971611,-122.12280798,0.52999997,
7.0920,0.0181,-1.2150,-0.1712,-2.9574,3.9265,4.5041,-2.8087,-0.2849,-0.9319,1009.7457,185.4959,87.7551,-15.0140,47.63971611,-122.12280798,0.52999997,
7.0960,0.0181,-1.2150,-0.1712,2.6206,3.2290,0.1480,-2.8087,-0.2849,-0.9319,1009.7457,185.4959,87.7551,-15.0140,47.63971611,-122.12280798,0.52999997,
7.0980,-0.0335,-1.3250,-0.2459,2.6206,3.2290,0.1480,-2.8087,-0.2849,-0.9319,1009.7457,185.4959,87.7551,-15.0140,47.63971611,-122.12280798,0.52999997,
7.1170,-0.0335,-1.3250,-0.2459,2.6206,3.2290,0.1480,-2.8087,-0.2849,-0.9319,1009.7457,185.0878,95.2688,-11.6425,47.63971611,-122.12280798,0.52999997,
7.1210,-0.0335,-1.3250,-0.2459,2.6206,3.2290,0.1480,-2.8087,-0.2849,-0.9319,1009.7289,185.0878,95.2688,-11.6425,47.63971611,-122.12280798,0.52999997,
7.1360,-0.0335,-1.3250,-0.2459,1.8767,6.6242,-3.4964,-2.8087,-0.2849,-0.9319,1009.7289,185.0878,95.2688,-11.6425,47.63971611,-122.12280798,0.52999997,
7.1560,-0.4669,-1.5567,0.1087,1.8767,6.6242,-3.4964,-2.8087,-0.2849,-0.9319,1009.7289,185.0878,95.2688,-11.6425,47.63971611,-122.12280798,0.52999997,
7.1570,-0.4669,-1.5567,0.1087,1.8767,6.6242,-3.4964,-2.3610,-0.9830,-1.6767,1009.7289,185.0878,95.2688,-11.6425,47.63971611,-122.12280798,0.52999997,
7.1580,-0.4669,-1.5567,0.1087,1.8767,6.6242,-3.4964,-2.3610,-0.9830,-1.6767,1009.7289,181.4805,99.3090,-8.2866,47.63971611,-122.12280798,0.52999997,
7.1590,-0.4669,-1.5567,0.1087,1.8767,6.6242,-3.4964,-2.3610,-0.9830,-1.6767,1009.6057,181.4805,99.3090,-8.2866,47.63971611,-122.12280798,0.52999997,
7.1760,-0.4669,-1.5567,0.1087,0.1714,4.2540,-1.5814,-2.3610,-0.9830,-1.6767,1009.6057,181.4805,99.3090,-8.2866,47.63971611,-122.12280798,0.52999997,
7.1960,-0.4669,-1.5567,0.1087,0.1714,4.2540,-1.5814,-2.3610,-0.9830,-1.6767,1009.6057,177.8567,103.1128,-5.4751,47.63971611,-122.12280798,0.52999997,
7.2170,-0.4669,-1.5567,0.1087,-0.7532,1.3017,-2.9227,-2.3610,-0.9830,-1.6767,1009.6057,177.8567,103.1128,-5.4751,47.63971611,-122.12280798,0.52999997,
7.2200,-0.4669,-1.5567,0.1087,-0.7532,1.3017,-2.9227,-2.1609,-1.3407,-1.3899,1009.6057,177.8567,103.1128,-5.4751,47.63971611,-122.12280798,0.52999997,
7.2270,-0.0823,-1.2839,0.0072,-0.7532,1.3017,-2.9227,-2.1609,-1.3407,-1.3899,1009.6057,177.8567,103.1128,-5.4751,47.63971611,-122.12280798,0.52999997,
7.2360,-0.0823,-1.2839,0.0072,-0.7532,1.3017,-2.9227,-2.1609,-1.3407,-1.3899,1009.6057,173.8827,108.0960,-3.6363,47.63971611,-122.12280798,0.52999997,
7.2380,-0.0823,-1.2839,0.0072,-0.7532,1.3017,-2.9227,-2.1609,-1.3407,-1.3899,1009.6883,173.8827,108.0960,-3.6363,47.63971611,-122.12280798,0.52999997,
7.2560,-0.0823,-1.2839,0.0072,0.1307,-0.6524,-4.4144,-2.1609,-1.3407,-1.3899,1009.6883,173.8827,108.0960,-3.6363,47.63971611,-122.12280798,0.52999997,
7.2750,-0.0823,-1.2839,0.0072,0.1307,-0.6524,-4.4144,-2.1609,-1.3407,-1.3899,1009.6883,169.9998,112.8294,-2.6790,47.63971611,-122.12280798,0.52999997,
7.2850,-0.0823,-1.2839,0.0072,0.1307,-0.6524,-4.4144,-2.1825,-1.3758,-0.9859,1009.6883,169.9998,112.8294,-2.6790,47.63971611,-122.12280798,0.52999997,
7.2960,-0.0823,-1.2839,0.0072,2.1465,-2.8214,-4.9192,-2.1825,-1.3758,-0.9859,1009.6883,169.9998,112.8294,-2.6790,47.63971611,-122.12280798,0.52999997,
7.2970,-0.1061,-0.8305,0.0972,2.1465,-2.8214,-4.9192,-2.1825,-1.3758,-0.9859,1009.6883,169.9998,112.8294,-2.6790,47.63971611,-122.12280798,0.52999997,
7.3150,-0.1061,-0.8305,0.0972,2.1465,-2.8214,-4.9192,-2.1825,-1.3758,-0.9859,1009.6883,166.8501,116.3391,-2.1613,47.63971611,-122.12280798,0.52999997,
7.3180,-0.1061,-0.8305,0.0972,2.1465,-2.8214,-4.9192,-2.1825,-1.3758,-0.9859,1009.7593,166.8501,116.3391,-2.1613,47.63971611,-122.12280798,0.52999997,
7.3360,-0.1061,-0.8305,0.0972,2.7418,-4.3672,-6.2616,-2.1825,-1.3758,-0.9859,1009.7593,166.8501,116.3391,-2.1613,47.63971611,-122.12280798,0.52999997,
7.3500,-0.1061,-0.8305,0.0972,2.7418,-4.3672,-6.2616,-1.2649,-1.1094,-0.8354,1009.7593,166.8501,116.3391,-2.1613,47.63971611,-122.12280798,0.52999997,
7.3550,-0.1061,-0.8305,0.0972,2.7418,-4.3672,-6.2616,-1.2649,-1.1094,-0.8354,1009.7593,163.7043,118.4106,-1.8435,47.63971611,-122.12280798,0.52999997,
7.3590,-0.1061,-0.8305,0.0972,2.7418,-4.3672,-6.2616,-1.2649,-1.1094,-0.8354,1009.9035,163.7043,118.4106,-1.8435,47.63971611,-122.12280798,0.52999997,
7.3650,-0.2896,-0.4861,0.1474,2.7418,-4.3672,-6.2616,-1.2649,-1.1094,-0.8354,1009.9035,163.7043,118.4106,-1.8435,47.63971611,-122.12280798,0.52999997,
7.3750,-0.2896,-0.4861,0.1474,0.9149,-5.1817,-6.0288,-1.2649,-1.1094,-0.8354,1009.9035,163.7043,118.4106,-1.8435,47.63971611,-122.12280798,0.52999997,
7.3950,-0.2896,-0.4861,0.1474,0.9149,-5.1817,-6.0288,-1.2649,-1.1094,-0.8354,1009.9035,162.1400,118.5908,-1.3379,47.63971611,-122.12280798,0.52999997,
7.4150,-0.2896,-0.4861,0.1474,0.9149,-5.1817,-6.0288,0.1325,-0.2522,-0.4768,1009.9035,162.1400,118.5908,-1.3379,47.63971611,-122.12280798,0.52999997,
7.4170,-0.2896,-0.4861,0.1474,0.3943,-5.7972,-2.1871,0.1325,-0.2522,-0.4768,1009.9035,162.1400,118.5908,-1.3379,47.63971611,-122.12280798,0.52999997,
7.4250,-0.0783,-0.3348,-0.0455,0.3943,-5.7972,-2.1871,0.1325,-0.2522,-0.4768,1009.9035,162.1400,118.5908,-1.3379,47.63971611,-122.12280798,0.52999997,
7.4340,-0.0783,-0.3348,-0.0455,0.3943,-5.7972,-2.1871,0.1325,-0.2522,-0.4768,1009.9035,162.1579,116.4763,-0.7113,47.63971611,-122.12280798,0.52999997,
7.4380,-0.0783,-0.3348,-0.0455,0.3943,-5.7972,-2.1871,0.1325,-0.2522,-0.4768,1009.9149,162.1579,116.4763,-0.7113,47.63971611,-122.12280798,0.52999997,
7.4550,-0.0783,-0.3348,-0.0455,-1.1024,-2.4822,4.4817,0.1325,-0.2522,-0.4768,1009.9149,162.1579,116.4763,-0.7113,47.63971611,-122.12280798,0.52999997,
7.4740,-0.0783,-0.3348,-0.0455,-1.1024,-2.4822,4.4817,0.1325,-0.2522,-0.4768,1009.9149,161.3845,111.6788,-1.4780,47.63971611,-122.12280798,0.52999997,
7.4790,-0.0783,-0.3348,-0.0455,-1.1024,-2.4822,4.4817,1.9172,-0.4578,0.1410,1009.9149,161.3845,111.6788,-1.4780,47.63971611,-122.12280798,0.52999997,
7.4950,0.1758,-0.8486,-0.9476,-1.1024,-2.4822,4.4817,1.9172,-0.4578,0.1410,1009.9149,161.3845,111.6788,-1.4780,47.63971611,-122.12280798,0.52999997,
7.4960,0.1758,-0.8486,-0.9476,-4.6270,8.3651,7.3709,1.9172,-0.4578,0.1410,1009.9149,161.3845,111.6788,-1.4780,47.63971611,-122.12280798,0.52999997,
7.5140,0.1758,-0.8486,-0.9476,-4.6270,8.3651,7.3709,1.9172,-0.4578,0.1410,1009.9149,159.3181,110.0374,-2.1951,47.63971611,-122.12280798,0.52999997,
7.5190,0.1758,-0.8486,-0.9476,-4.6270,8.3651,7.3709,1.9172,-0.4578,0.1410,1009.8881,159.3181,110.0374,-2.1951,47.63971611,-122.12280798,0.52999997,
7.5340,0.1758,-0.8486,-0.9476,0.1923,2.8681,6.2038,1.9172,-0.4578,0.1410,1009.8881,159.3181,110.0374,-2.1951,47.63971611,-122.12280798,0.52999997,
7.5440,0.1758,-0.8486,-0.9476,0.1923,2.8681,6.2038,-0.0254,-0.1348,-0.1605,1009.8881,159.3181,110.0374,-2.1951,47.63971611,-122.12280798,0.52999997,
7.5540,0.1758,-0.8486,-0.9476,0.1923,2.8681,6.2038,-0.0254,-0.1348,-0.1605,1009.8881,159.9114,111.2175,-1.5348,47.63971611,-122.12280798,0.52999997,
7.5590,0.1758,-0.8486,-0.9476,0.1923,2.8681,6.2038,-0.0254,-0.1348,-0.1605,1009.9720,159.9114,111.2175,-1.5348,47.63971611,-122.12280798,0.52999997,
7.5640,-0.0359,-1.4397,-0.8966,0.1923,2.8681,6.2038,-0.0254,-0.1348,-0.1605,1009.9720,159.9114,111.2175,-1.5348,47.63971611,-122.12280798,0.52999997,
7.5740,-0.0359,-1.4397,-0.8966,2.5500,-2.3499,2.4115,-0.0254,-0.1348,-0.1605,1009.9720,159.9114,111.2175,-1.5348,47.63971611,-122.12280798,0.52999997,
7.5940,-0.0359,-1.4397,-0.8966,2.5500,-2.3499,2.4115,-0.0254,-0.1348,-0.1605,1009.9720,158.2311,112.1958,-3.1468,47.63971611,-122.12280798,0.52999997,
7.6090,-0.0359,-1.4397,-0.8966,2.5500,-2.3499,2.4115,-0.3137,-0.3955,0.3002,1009.9720,158.2311,112.1958,-3.1468,47.63971611,-122.12280798,0.52999997,
7.6140,-0.0359,-1.4397,-0.8966,2.5459,3.9546,0.2176,-0.3137,-0.3955,0.3002,1009.9720,158.2311,112.1958,-3.1468,47.63971611,-122.12280798,0.52999997,
7.6240,-0.1545,-0.9822,-0.3563,2.5459,3.9546,0.2176,-0.3137,-0.3955,0.3002,1009.9720,158.2311,112.1958,-3.1468,47.63971611,-122.12280798,0.52999997,
7.6330,-0.1545,-0.9822,-0.3563,2.5459,3.9546,0.2176,-0.3137,-0.3955,0.3002,1009.9720,160.0843,112.2978,-3.4955,47.63971611,-122.12280798,0.52999997,
7.6380,-0.1545,-0.9822,-0.3563,2.5459,3.9546,0.2176,-0.3137,-0.3955,0.3002,1009.7068,160.0843,112.2978,-3.4955,47.63971611,-122.12280798,0.52999997,
7.6540,-0.1545,-0.9822,-0.3563,1.0733,-3.3984,-6.4346,-0.3137,-0.3955,0.3002,1009.7068,160.0843,112.2978,-3.4955,47.63971611,-122.12280798,0.52999997,
7.6740,-0.1545,-0.9822,-0.3563,1.0733,-3.3984,-6.4346,0.6244,0.1506,0.5809,1009.7068,160.0843,112.2978,-3.4955,47.63971611,-122.12280798,0.52999997,
7.6750,-0.1545,-0.9822,-0.3563,1.0733,-3.3984,-6.4346,0.6244,0.1506,0.5809,1009.7068,160.4289,109.9921,-4.7816,47.63971611,-122.12280798,0.52999997,
7.6940,-0.0048,-0.8715,0.3672,1.0733,-3.3984,-6.4346,0.6244,0.1506,0.5809,1009.7068,160.4289,109.9921,-4.7816,47.63971611,-122.12280798,0.52999997,
7.6950,-0.0048,-0.8715,0.3672,-3.2257,3.3761,-8.0603,0.6244,0.1506,0.5809,1009.7068,160.4289,109.9921,-4.7816,47.63971611,-122.12280798,0.52999997,
7.7130,-0.0048,-0.8715,0.3672,-3.2257,3.3761,-8.0603,0.6244,0.1506,0.5809,1009.7068,159.6972,105.8840,-4.7403,47.63971611,-122.12280798,0.52999997,
7.7180,-0.0048,-0.8715,0.3672,-3.2257,3.3761,-8.0603,0.6244,0.1506,0.5809,1009.3922,159.6972,105.8840,-4.7403,47.63971611,-122.12280798,0.52999997,
7.7330,-0.0048,-0.8715,0.3672,0.3718,2.2847,-2.4373,0.6244,0.1506,0.5809,1009.3922,159.6972,105.8840,-4.7403,47.63971611,-122.12280798,0.52999997,
7.7370,-0.0048,-0.8715,0.3672,0.3718,2.2847,-2.4373,1.3582,0.2761,-0.0595,1009.3922,159.6972,105.8840,-4.7403,47.63971611,-122.12280798,0.52999997,
7.7530,-0.0048,-0.8715,0.3672,0.3718,2.2847,-2.4373,1.3582,0.2761,-0.0595,1009.3922,162.1526,103.6898,-4.4749,47.63971611,-122.12280798,0.52999997,
7.7580,-0.0048,-0.8715,0.3672,0.3718,2.2847,-2.4373,1.3582,0.2761,-0.0595,1009.5616,162.1526,103.6898,-4.4749,47.63971611,-122.12280798,0.52999997,
7.7620,-0.0471,-1.2334,0.0969,0.3718,2.2847,-2.4373,1.3582,0.2761,-0.0595,1009.5616,162.1526,103.6898,-4.4749,47.63971611,-122.12280798,0.52999997,
7.7730,-0.0471,-1.2334,0.0969,3.8046,-0.7060,-1.2803,1.3582,0.2761,-0.0595,1009.5616,162.1526,103.6898,-4.4749,47.63971611,-122.12280798,0.52999997,
7.7930,-0.0471,-1.2334,0.0969,3.8046,-0.7060,-1.2803,1.3582,0.2761,-0.0595,1009.5616,166.2104,99.8619,-5.7646,47.63971611,-122.12280798,0.52999997,
7.8030,-0.0471,-1.2334,0.0969,3.8046,-0.7060,-1.2803,1.6843,1.5965,0.6917,1009.5616,166.2104,99.8619,-5.7646,47.63971611,-122.12280798,0.52999997,
7.8130,-0.0471,-1.2334,0.0969,-0.5192,1.9005,-2.2620,1.6843,1.5965,0.6917,1009.5616,166.2104,99.8619,-5.7646,47.63971611,-122.12280798,0.52999997,
7.8230,-0.2602,-1.0460,-0.0007,-0.5192,1.9005,-2.2620,1.6843,1.5965,0.6917,1009.5616,166.2104,99.8619,-5.7646,47.63971611,-122.12280798,0.52999997,
7.8330,-0.2602,-1.0460,-0.0007,-0.5192,1.9005,-2.2620,1.6843,1.5965,0.6917,1009.5616,169.2017,96.3079,-5.8506,47.63971611,-122.12280798,0.52999997,
7.8390,-0.2602,-1.0460,-0.0007,-0.5192,1.9005,-2.2620,1.6843,1.5965,0.6917,1009.5861,169.2017,96.3079,-5.8506,47.63971611,-122.12280798,0.52999997,
7.8530,-0.2602,-1.0460,-0.0007,-3.6824,-2.1763,-0.5700,1.6843,1.5965,0.6917,1009.5861,169.2017,96.3079,-5.8506,47.63971611,-122.12280798,0.52999997,
7.8680,-0.2602,-1.0460,-0.0007,-3.6824,-2.1763,-0.5700,1.5476,0.9620,0.2092,1009.5861,169.2017,96.3079,-5.8506,47.63971611,-122.12280798,0.52999997,
7.8730,-0.2602,-1.0460,-0.0007,-3.6824,-2.1763,-0.5700,1.5476,0.9620,0.2092,1009.5861,171.1847,93.0833,-6.1015,47.63971611,-122.12280798,0.52999997,
7.8930,0.1606,-0.8398,-0.0315,-3.6824,-2.1763,-0.5700,1.5476,0.9620,0.2092,1009.5861,171.1847,93.0833,-6.1015,47.63971611,-122.12280798,0.52999997,
7.8940,0.1606,-0.8398,-0.0315,-0.3429,-1.0144,1.0859,1.5476,0.9620,0.2092,1009.5861,171.1847,93.0833,-6.1015,47.63971611,-122.12280798,0.52999997,
7.9120,0.1606,-0.8398,-0.0315,-0.3429,-1.0144,1.0859,1.5476,0.9620,0.2092,1009.5861,173.1015,89.9387,-7.1731,47.63971611,-122.12280798,0.52999997,
7.9180,0.1606,-0.8398,-0.0315,-0.3429,-1.0144,1.0859,1.5476,0.9620,0.2092,1009.7361,173.1015,89.9387,-7.1731,47.63971611,-122.12280798,0.52999997,
7.9340,0.1606,-0.8398,-0.0315,-0.3429,-1.0144,1.0859,1.4548,0.6634,0.5686,1009.7361,173.1015,89.9387,-7.1731,47.63971611,-122.12280798,0.52999997,
7.9350,0.1606,-0.8398,-0.0315,-0.9875,-1.1275,0.3794,1.4548,0.6634,0.5686,1009.7361,173.1015,89.9387,-7.1731,47.63971611,-122.12280798,0.52999997,
7.9520,0.1606,-0.8398,-0.0315,-0.9875,-1.1275,0.3794,1.4548,0.6634,0.5686,1009.7361,174.0121,86.9308,-8.8572,47.63971611,-122.12280798,0.52999997,
7.9580,0.1606,-0.8398,-0.0315,-0.9875,-1.1275,0.3794,1.4548,0.6634,0.5686,1009.7612,174.0121,86.9308,-8.8572,47.63971611,-122.12280798,0.52999997,
7.9620,-0.0688,-0.8829,-0.0495,-0.9875,-1.1275,0.3794,1.4548,0.6634,0.5686,1009.7612,174.0121,86.9308,-8.8572,47.63971611,-122.12280798,0.52999997,
7.9720,-0.0688,-0.8829,-0.0495,-0.6906,-0.8643,1.5274,1.4548,0.6634,0.5686,1009.7612,174.0121,86.9308,-8.8572,47.63971611,-122.12280798,0.52999997,
7.9920,-0.0688,-0.8829,-0.0495,-0.6906,-0.8643,1.5274,1.4548,0.6634,0.5686,1009.7612,175.3342,84.2641,-11.5319,47.63971611,-122.12280798,0.52999997,
7.9960,-0.0688,-0.8829,-0.0495,-0.6906,-0.8643,1.5274,1.3085,0.6115,1.0717,1009.7612,175.3342,84.2641,-11.5319,47.63971611,-122.12280798,0.52999997,
8.0120,-0.0688,-0.8829,-0.0495,-3.8155,-0.4780,3.7343,1.3085,0.6115,1.0717,1009.7612,175.3342,84.2641,-11.5319,47.63971611,-122.12280798,0.52999997,
8.0320,-0.0688,-0.8829,-0.0495,-3.8155,-0.4780,3.7343,1.3085,0.6115,1.0717,1009.7612,176.4448,82.0162,-13.5601,47.63971611,-122.12280798,0.52999997,
8.0330,0.0411,-0.9166,-0.1499,-3.8155,-0.4780,3.7343,1.3085,0.6115,1.0717,1009.7612,176.4448,82.0162,-13.5601,47.63971611,-122.12280798,0.52999997,
8.0390,0.0411,-0.9166,-0.1499,-3.8155,-0.4780,3.7343,1.3085,0.6115,1.0717,1009.8029,176.4448,82.0162,-13.5601,47.63971611,-122.12280798,0.52999997,
8.0520,0.0411,-0.9166,-0.1499,-3.4020,-0.2710,2.8002,1.3085,0.6115,1.0717,1009.8029,176.4448,82.0162,-13.5601,47.63971611,-122.12280798,0.52999997,
8.0610,0.0411,-0.9166,-0.1499,-3.4020,-0.2710,2.8002,0.8719,0.5120,0.6842,1009.8029,176.4448,82.0162,-13.5601,47.63971611,-122.12280798,0.52999997,
8.0720,0.0411,-0.9166,-0.1499,-3.4020,-0.2710,2.8002,0.8719,0.5120,0.6842,1009.8029,177.4243,80.9408,-14.8230,47.63971611,-122.12280798,0.52999997,
8.0920,0.1190,-0.9425,-0.0930,-3.4020,-0.2710,2.8002,0.8719,0.5120,0.6842,1009.8029,177.4243,80.9408,-14.8230,47.63971611,-122.12280798,0.52999997,
8.0930,0.1190,-0.9425,-0.0930,-4.0950,0.3815,1.6040,0.8719,0.5120,0.6842,1009.8029,177.4243,80.9408,-14.8230,47.63971611,-122.12280798,0.52999997,
8.1110,0.1190,-0.9425,-0.0930,-4.0950,0.3815,1.6040,0.8719,0.5120,0.6842,1009.8029,178.1150,80.6911,-15.3584,47.63971611,-122.12280798,0.52999997,
8.1190,0.1190,-0.9425,-0.0930,-4.0950,0.3815,1.6040,0.8719,0.5120,0.6842,1009.7365,178.1150,80.6911,-15.3584,47.63971611,-122.12280798,0.52999997,
8.1260,0.1190,-0.9425,-0.0930,-4.0950,0.3815,1.6040,0.2072,0.4452,0.2103,1009.7365,178.1150,80.6911,-15.3584,47.63971611,-122.12280798,0.52999997,
8.1310,0.1190,-0.9425,-0.0930,0.2003,1.9400,2.2755,0.2072,0.4452,0.2103,1009.7365,178.1150,80.6911,-15.3584,47.63971611,-122.12280798,0.52999997,
8.1510,0.1190,-0.9425,-0.0930,0.2003,1.9400,2.2755,0.2072,0.4452,0.2103,1009.7365,179.9106,81.2618,-15.8664,47.63971611,-122.12280798,0.52999997,
8.1580,0.1190,-0.9425,-0.0930,0.2003,1.9400,2.2755,0.2072,0.4452,0.2103,1009.7688,179.9106,81.2618,-15.8664,47.63971611,-122.12280798,0.52999997,
8.1600,-0.1566,-1.1533,-0.0894,0.2003,1.9400,2.2755,0.2072,0.4452,0.2103,1009.7688,179.9106,81.2618,-15.8664,47.63971611,-122.12280798,0.52999997,
8.1710,-0.1566,-1.1533,-0.0894,-3.1874,3.4330,3.3866,0.2072,0.4452,0.2103,1009.7688,179.9106,81.2618,-15.8664,47.63971611,-122.12280798,0.52999997,
8.1910,-0.1566,-1.1533,-0.0894,-3.1874,3.4330,3.3866,-0.8036,0.6167,0.1148,1009.7688,179.9106,81.2618,-15.8664,47.63971611,-122.12280798,0.52999997,
8.1920,-0.1566,-1.1533,-0.0894,-3.1874,3.4330,3.3866,-0.8036,0.6167,0.1148,1009.7688,181.2267,84.0619,-16.2333,47.63971611,-122.12280798,0.52999997,
8.2110,-0.1566,-1.1533,-0.0894,-2.1402,4.1088,3.3200,-0.8036,0.6167,0.1148,1009.7688,181.2267,84.0619,-16.2333,47.63971611,-122.12280798,0.52999997,
8.2310,0.0011,-1.3242,-0.2613,-2.1402,4.1088,3.3200,-0.8036,0.6167,0.1148,1009.7688,181.2267,84.0619,-16.2333,47.63971611,-122.12280798,0.52999997,
8.2320,0.0011,-1.3242,-0.2613,-2.1402,4.1088,3.3200,-0.8036,0.6167,0.1148,1009.7688,180.6563,89.5253,-15.1708,47.63971611,-122.12280798,0.52999997,
8.2380,0.0011,-1.3242,-0.2613,-2.1402,4.1088,3.3200,-0.8036,0.6167,0.1148,1009.7466,180.6563,89.5253,-15.1708,47.63971611,-122.12280798,0.52999997,
8.2510,0.0011,-1.3242,-0.2613,3.1055,2.7623,-0.3461,-0.8036,0.6167,0.1148,1009.7466,180.6563,89.5253,-15.1708,47.63971611,-122.12280798,0.52999997,
8.2580,0.0011,-1.3242,-0.2613,3.1055,2.7623,-0.3461,-2.5872,0.0443,-0.8255,1009.7466,180.6563,89.5253,-15.1708,47.63971611,-122.12280798,0.52999997,
8.2710,0.0011,-1.3242,-0.2613,3.1055,2.7623,-0.3461,-2.5872,0.0443,-0.8255,1009.7466,181.8877,95.6246,-12.1470,47.63971611,-122.12280798,0.52999997,
8.2900,-0.4694,-1.3457,-0.0567,3.1055,2.7623,-0.3461,-2.5872,0.0443,-0.8255,1009.7466,181.8877,95.6246,-12.1470,47.63971611,-122.12280798,0.52999997,
8.2910,-0.4694,-1.3457,-0.0567,1.7634,5.5848,0.2437,-2.5872,0.0443,-0.8255,1009.7466,181.8877,95.6246,-12.1470,47.63971611,-122.12280798,0.52999997,
8.3110,-0.4694,-1.3457,-0.0567,1.7634,5.5848,0.2437,-2.5872,0.0443,-0.8255,1009.7466,181.2883,99.5407,-8.6053,47.63971611,-122.12280798,0.52999997,
8.3180,-0.4694,-1.3457,-0.0567,1.7634,5.5848,0.2437,-2.5872,0.0443,-0.8255,1009.6689,181.2883,99.5407,-8.6053,47.63971611,-122.12280798,0.52999997,
8.3200,-0.4694,-1.3457,-0.0567,1.7634,5.5848,0.2437,-1.7891,-0.2689,-1.5540,1009.6689,181.2883,99.5407,-8.6053,47.63971611,-122.12280798,0.52999997,
8.3300,-0.4694,-1.3457,-0.0567,-1.3520,5.2550,-0.9828,-1.7891,-0.2689,-1.5540,1009.6689,181.2883,99.5407,-8.6053,47.63971611,-122.12280798,0.52999997,
8.3500,-0.4694,-1.3457,-0.0567,-1.3520,5.2550,-0.9828,-1.7891,-0.2689,-1.5540,1009.6689,177.4449,102.5523,-6.1644,47.63971611,-122.12280798,0.52999997,
8.3590,-0.4694,-1.3457,-0.0567,-1.3520,5.2550,-0.9828,-1.7891,-0.2689,-1.5540,1009.7659,177.4449,102.5523,-6.1644,47.63971611,-122.12280798,0.52999997,
8.3600,-0.0823,-1.4863,-0.1027,-1.3520,5.2550,-0.9828,-1.7891,-0.2689,-1.5540,1009.7659,177.4449,102.5523,-6.1644,47.63971611,-122.12280798,0.52999997,
8.3700,-0.0823,-1.4863,-0.1027,0.2723,1.3979,-2.4174,-1.7891,-0.2689,-1.5540,1009.7659,177.4449,102.5523,-6.1644,47.63971611,-122.12280798,0.52999997,
8.3850,-0.0823,-1.4863,-0.1027,0.2723,1.3979,-2.4174,-1.7153,-1.4127,-1.0244,1009.7659,177.4449,102.5523,-6.1644,47.63971611,-122.12280798,0.52999997,
8.3900,-0.0823,-1.4863,-0.1027,0.2723,1.3979,-2.4174,-1.7153,-1.4127,-1.0244,1009.7659,174.0121,106.1712,-5.0376,47.63971611,-122.12280798,0.52999997,
8.4100,-0.0823,-1.4863,-0.1027,1.1002,-1.3101,-3.9382,-1.7153,-1.4127,-1.0244,1009.7659,174.0121,106.1712,-5.0376,47.63971611,-122.12280798,0.52999997,
8.4300,-0.1546,-0.9356,0.0751,1.1002,-1.3101,-3.9382,-1.7153,-1.4127,-1.0244,1009.7659,174.0121,106.1712,-5.0376,47.63971611,-122.12280798,0.52999997,
8.4310,-0.1546,-0.9356,0.0751,1.1002,-1.3101,-3.9382,-1.7153,-1.4127,-1.0244,1009.7659,171.4861,109.5653,-4.0243,47.63971611,-122.12280798,0.52999997,
8.4380,-0.1546,-0.9356,0.0751,1.1002,-1.3101,-3.9382,-1.7153,-1.4127,-1.0244,1009.6730,171.4861,109.5653,-4.0243,47.63971611,-122.12280798,0.52999997,
8.4500,-0.1546,-0.9356,0.0751,1.1002,-1.3101,-3.9382,-1.5944,-0.9661,-0.8287,1009.6730,171.4861,109.5653,-4.0243,47.63971611,-122.12280798,0.52999997,
8.4510,-0.1546,-0.9356,0.0751,1.1184,-2.2632,-4.0867,-1.5944,-0.9661,-0.8287,1009.6730,171.4861,109.5653,-4.0243,47.63971611,-122.12280798,0.52999997,
8.4700,-0.1546,-0.9356,0.0751,1.1184,-2.2632,-4.0867,-1.5944,-0.9661,-0.8287,1009.6730,168.2515,112.5180,-3.2091,47.63971611,-122.12280798,0.52999997,
8.4890,-0.2074,-0.6178,0.1180,1.1184,-2.2632,-4.0867,-1.5944,-0.9661,-0.8287,1009.6730,168.2515,112.5180,-3.2091,47.63971611,-122.12280798,0.52999997,
8.4900,-0.2074,-0.6178,0.1180,2.0866,-4.7777,-5.7595,-1.5944,-0.9661,-0.8287,1009.6730,168.2515,112.5180,-3.2091,47.63971611,-122.12280798,0.52999997,
8.5100,-0.2074,-0.6178,0.1180,2.0866,-4.7777,-5.7595,-1.5944,-0.9661,-0.8287,1009.6730,164.7357,114.4598,-2.9710,47.63971611,-122.12280798,0.52999997,
